Time,Record No,Azimuth,Pitch,Roll,Accel-X,Accel-Y,Accel-Z
22:08:29,0,1.2589808,1.562923, -0.9414521,0.06898294, 0.13542204, 9.538051
22:08:29,1,1.2589808,1.562923, -0.9414521,0.06898294, 0.13542204, 9.538051
22:08:29,2,1.2589808,1.562923, -0.9414521,0.06898294, 0.13542204, 9.538051
22:08:30,3,1.2589808,1.562923, -0.9414521,0.06898294, 0.13542204, 9.538051
22:08:30,4,1.2589808,1.562923, -0.9414521,0.06898294, 0.13542204, 9.538051
22:08:30,5,1.2589808,1.562923, -0.9414521,0.06898294, 0.13542204, 9.538051
22:08:30,6,2.7337627,1.552631, -2.4023063,0.06898294, 0.13542204, 9.538051
22:08:30,7,2.7337627,1.552631, -2.4023063,0.1479916, 0.0827496, 9.550022
22:08:30,8,2.7032266,1.5527396, -2.3720763,0.1479916, 0.0827496, 9.550022
22:08:30,9,2.6944747,1.5528522, -2.3636355,0.1479916, 0.0827496, 9.550022
22:08:30,10,2.6944747,1.5528522, -2.3636355,0.08574235, 0.06838439, 9.581146
22:08:30,11,2.6944747,1.5528522, -2.3636355,0.06180033, 0.054019175, 9.550022
22:08:30,12,2.6819856,1.5524352, -2.3514273,0.06180033, 0.054019175, 9.550022
22:08:30,13,2.6819856,1.5524352, -2.3514273,0.124049574, 0.049230773, 9.521291
22:08:30,14,2.6737626,1.5525851, -2.3432043,0.124049574, 0.049230773, 9.521291
22:08:30,15,2.6737626,1.5525851, -2.3432043,0.08095395, 0.049230773, 9.528474
22:08:30,16,2.665399,1.5527428, -2.3348408,0.08095395, 0.049230773, 9.528474
22:08:30,17,2.665399,1.5527428, -2.3348408,0.13602059, 0.037259765, 9.5787525
22:08:30,18,2.6623523,1.5528157, -2.331794,0.13602059, 0.037259765, 9.5787525
22:08:30,19,2.6623523,1.5528157, -2.331794,0.12883797, 0.070778586, 9.526079
22:08:30,20,2.6551461,1.5529855, -2.3245878,0.12883797, 0.070778586, 9.526079
22:08:30,21,2.6551461,1.5529855, -2.3245878,0.11207857, 0.039653964, 9.564387
22:08:30,22,2.6551316,1.5526836, -2.3248794,0.11207857, 0.039653964, 9.564387
22:08:30,23,2.6551316,1.5526836, -2.3248794,0.11447277, 0.06120178, 9.593118
22:08:30,24,2.64761,1.5528057, -2.3173575,0.11447277, 0.06120178, 9.593118
22:08:30,25,2.64761,1.5528057, -2.3173575,0.07616554, 0.08035539, 9.487772
22:08:30,26,2.6434317,1.5529021, -2.3131795,0.07616554, 0.08035539, 9.487772
22:08:30,27,2.6434317,1.5529021, -2.3131795,0.1719336, 0.31019875, 9.011326
22:08:30,28,2.4309175,1.5544187, -2.10206,0.1719336, 0.31019875, 9.011326
22:08:30,29,2.4309175,1.5544187, -2.10206,0.10968436, 0.06359598, 9.499743
22:08:30,30,2.579699,1.5529621, -2.2513385,0.10968436, 0.06359598, 9.499743
22:08:31,31,2.579699,1.5529621, -2.2513385,0.10250176, 0.106691614, 9.432706
22:08:31,32,2.345026,1.5546939, -2.0198815,0.10250176, 0.106691614, 9.432706
22:08:31,33,2.345026,1.5546939, -2.0198815,-0.29493573, 0.57595515, 9.588329
22:08:31,34,2.3646924,1.5569468, -2.0348167,-0.29493573, 0.57595515, 9.588329
22:08:31,35,2.3646924,1.5569468, -2.0348167,-0.15367782, 0.7818565, 9.708039
22:08:31,36,2.0448413,1.5599877, -1.7223958,-0.15367782, 0.7818565, 9.708039
22:08:31,37,2.0448413,1.5599877, -1.7223958,0.39698857, 0.32216978, 8.903587
22:08:31,38,1.7006037,1.5566655, -1.4237108,0.39698857, 0.32216978, 8.903587
22:08:31,39,1.7006037,1.5566655, -1.4237108,-0.057909753, 0.9757868, 9.751135
22:08:31,40,1.7517005,1.5579052, -1.4751486,-0.057909753, 0.9757868, 9.751135
22:08:31,41,1.7517005,1.5579052, -1.4751486,0.41135377, -0.8653543, 9.688886
22:08:31,42,2.1164112,1.5561031, -1.8409643,0.41135377, -0.8653543, 9.688886
22:08:31,43,2.1164112,1.5561031, -1.8409643,-0.19437926, 1.3325229, 9.4039755
22:08:31,44,1.730178,1.5574241, -1.4616324,-0.19437926, 1.3325229, 9.4039755
22:08:31,45,1.730178,1.5574241, -1.4616324,0.3107973, 0.7411551, 9.09273
22:08:31,46,1.1340677,1.5529021, -0.8892416,0.3107973, 0.7411551, 9.09273
22:08:31,47,1.1340677,1.5529021, -0.8892416,1.8191444, -0.28116906, 10.28983
22:08:31,48,1.3884184,1.5466863, -1.172928,1.8191444, -0.28116906, 10.28983
22:08:31,49,1.3884184,1.5466863, -1.172928,-1.0131962, 0.7507319, 9.322573
22:08:31,50,1.2514142,1.5513474, -1.0428967,-1.0131962, 0.7507319, 9.322573
22:08:31,51,1.2514142,1.5513474, -1.0428967,-0.2901473, 0.40117842, 7.536498
22:08:31,52,1.1587983,1.5492175, -0.9567826,-0.2901473, 0.40117842, 7.536498
22:08:31,53,1.1587983,1.5492175, -0.9567826,0.66992754, 0.7411551, 8.48939
22:08:31,54,1.0340205,1.5447628, -0.83463764,0.66992754, 0.7411551, 8.48939
22:08:31,55,1.0340205,1.5447628, -0.83463764,-0.36915597, -0.7767688, 9.083153
22:08:31,56,0.8701941,1.5445508, -0.6677105,-0.36915597, -0.7767688, 9.083153
22:08:31,57,0.8701941,1.5445508, -0.6677105,0.052223526, 0.2359785, 10.009708
22:08:31,58,1.0529535,1.5464648, -0.8493068,0.052223526, 0.2359785, 10.009708
22:08:31,59,1.0529535,1.5464648, -0.8493068,-0.76898766, 0.49694648, 9.561993
22:08:32,60,1.553114,1.5549628, -1.3450279,-0.76898766, 0.49694648, 9.561993
22:08:32,61,1.553114,1.5549628, -1.3450279,0.09531915, 0.06599019, 9.875633
22:08:32,62,1.3804338,1.5545392, -1.1746495,0.09531915, 0.06599019, 9.875633
22:08:32,63,1.3804338,1.5545392, -1.1746495,0.104895964, -0.09202713, 9.875633
22:08:32,64,1.0589178,1.5488096, -0.86508924,0.104895964, -0.09202713, 9.875633
22:08:32,65,1.0589178,1.5488096, -0.86508924,-0.2662053, -1.0018238, 10.390387
22:08:32,66,1.4437343,1.5541874, -1.2569326,-0.2662053, -1.0018238, 10.390387
22:08:32,67,1.4437343,1.5541874, -1.2569326,-0.062698156, 1.4905401, 9.557204
22:08:32,68,2.0815363,1.5568055, -1.8858763,-0.062698156, 1.4905401, 9.557204
22:08:32,69,2.0815363,1.5568055, -1.8858763,-0.5032313, -0.41524437, 9.49256
22:08:32,70,1.8309796,1.556527, -1.645833,-0.5032313, -0.41524437, 9.49256
22:08:32,71,1.8309796,1.556527, -1.645833,-0.46013564, -0.83662385, 9.392004
22:08:32,72,2.031836,1.5572162, -1.8357146,-0.46013564, -0.83662385, 9.392004
22:08:32,73,2.031836,1.5572162, -1.8357146,-0.07227496, 0.26710314, 9.662549
22:08:32,74,2.651955,1.5533336, -2.4484391,-0.07227496, 0.26710314, 9.662549
22:08:32,75,2.651955,1.5533336, -2.4484391,0.18151042, 0.049230773, 9.566781
22:08:32,76,2.7057705,1.5517625, -2.5037243,0.18151042, 0.049230773, 9.566781
22:08:32,77,2.7057705,1.5517625, -2.5037243,0.13362639, 0.11866262, 9.588329
22:08:32,78,2.605739,1.5534226, -2.4059038,0.13362639, 0.11866262, 9.588329
22:08:32,79,2.605739,1.5534226, -2.4059038,0.14080898, 0.05641338, 9.521291
22:08:32,80,2.6001272,1.5535052, -2.4002917,0.14080898, 0.05641338, 9.521291
22:08:32,81,2.6001272,1.5535052, -2.4002917,0.14080898, 0.11387422, 9.597906
22:08:32,82,2.586577,1.5537132, -2.3867416,0.14080898, 0.11387422, 9.597906
22:08:32,83,2.586577,1.5537132, -2.3867416,0.121655375, 0.14739305, 9.542839
22:08:32,84,2.572698,1.5539134, -2.3728628,0.121655375, 0.14739305, 9.542839
22:08:32,85,2.572698,1.5539134, -2.3728628,0.13602059, 0.13781624, 9.526079
22:08:32,86,2.5864325,1.5539912, -2.3886833,0.13602059, 0.13781624, 9.526079
22:08:32,87,2.5864325,1.5539912, -2.3886833,0.1599626, 0.11626842, 9.49256
22:08:32,88,2.5794241,1.5540943, -2.381675,0.1599626, 0.11626842, 9.49256
22:08:33,89,2.5794241,1.5540943, -2.381675,0.0067336923, 0.19767128, 9.566781
22:08:33,90,2.4304984,1.5548689, -2.2331197,0.0067336923, 0.19767128, 9.566781
22:08:33,91,2.4304984,1.5548689, -2.2331197,0.18390462, 0.15218145, 9.456648
22:08:33,92,2.2913494,1.5577718, -2.1016355,0.18390462, 0.15218145, 9.456648
22:08:33,93,2.2913494,1.5577718, -2.1016355,0.1503858, 0.13063364, 9.521291
22:08:33,94,2.2896185,1.55759, -2.1010706,0.1503858, 0.13063364, 9.521291
22:08:33,95,2.3329234,1.5568055, -2.1445274,0.1503858, 0.13063364, 9.521291
22:08:33,96,2.3329234,1.5568055, -2.1445274,0.13602059, 0.13781624, 9.535657
22:08:33,97,2.3329234,1.5568055, -2.1445274,0.11447277, 0.12823942, 9.521291
22:08:33,98,2.318375,1.5560383, -2.1300702,0.11447277, 0.12823942, 9.521291
22:08:33,99,2.318375,1.5560383, -2.1300702,1.17271, -3.5708022, 8.554034
22:08:33,100,2.6229475,1.5441383, -2.444225,1.17271, -3.5708022, 8.554034
22:08:33,101,2.6229475,1.5441383, -2.444225,-0.062698156, 0.28625673, 9.693674
22:08:33,102,2.6232135,1.5488422, -2.4369254,-0.062698156, 0.28625673, 9.693674
22:08:33,103,2.6232135,1.5488422, -2.4369254,0.49036244, -0.81028765, 9.183709
22:08:33,104,2.6940536,1.5440401, -2.51377,0.49036244, -0.81028765, 9.183709
22:08:33,105,2.6940536,1.5440401, -2.51377,0.19826983, 0.7890391, 9.265112
22:08:33,106,2.6356122,1.5438536, -2.4652846,0.19826983, 0.7890391, 9.265112
22:08:33,107,2.6356122,1.5438536, -2.4652846,0.5597943, -0.7743746, 9.499743
22:08:33,108,2.5772443,1.5464109, -2.4139323,0.5597943, -0.7743746, 9.499743
22:08:33,109,2.5772443,1.5464109, -2.4139323,0.51909286, 1.1960534, 8.999355
22:08:33,110,2.544347,1.5421695, -2.3946846,0.51909286, 1.1960534, 8.999355
22:08:33,111,2.544347,1.5421695, -2.3946846,-0.06748656, -0.50382984, 8.829367
22:08:33,112,2.5686533,1.54328, -2.4301918,-0.06748656, -0.50382984, 8.829367
22:08:33,113,2.5686533,1.54328, -2.4301918,-0.04833295, 1.7634792, 9.648184
22:08:33,114,2.4655628,1.5471255, -2.327075,-0.04833295, 1.7634792, 9.648184
22:08:33,115,2.4655628,1.5471255, -2.327075,0.37783495, -0.50861824, 8.83655
22:08:33,116,2.4835176,1.5424457, -2.3583622,0.37783495, -0.50861824, 8.83655
22:08:34,117,2.4835176,1.5424457, -2.3583622,-0.06748656, 1.1146505, 8.690503
22:08:34,118,2.3237383,1.5482422, -2.2104492,-0.06748656, 1.1146505, 8.690503
22:08:34,119,2.3237383,1.5482422, -2.2104492,0.4305074, 0.59271455, 8.86528
22:08:34,120,1.9991628,1.5517561, -1.8974903,0.4305074, 0.59271455, 8.86528
22:08:34,121,1.9991628,1.5517561, -1.8974903,0.19108722, -0.6379051, 10.3832035
22:08:34,122,1.9217988,1.5521197, -1.8271232,0.19108722, -0.6379051, 10.3832035
22:08:34,123,1.9217988,1.5521197, -1.8271232,0.3012205, -0.94915134, 9.238775
22:08:34,124,2.00968,1.5529822, -1.9196498,0.3012205, -0.94915134, 9.238775
22:08:34,125,2.00968,1.5529822, -1.9196498,-0.060303956, 0.45624506, 9.717616
22:08:34,126,1.6499498,1.5559859, -1.5575984,-0.060303956, 0.45624506, 9.717616
22:08:34,127,1.6499498,1.5559859, -1.5575984,0.49275663, 1.1266215, 9.6266365
22:08:34,128,1.2916422,1.5508959, -1.2200283,0.49275663, 1.1266215, 9.6266365
22:08:34,129,1.2916422,1.5508959, -1.2200283,-0.8240543, 1.1768998, 8.83655
22:08:34,130,0.81574106,1.5499909, -0.7509058,-0.8240543, 1.1768998, 8.83655
22:08:34,131,0.81574106,1.5499909, -0.7509058,0.74175364, 0.039653964, 9.973795
22:08:34,132,1.2906325,1.5541015, -1.2190197,0.74175364, 0.039653964, 9.973795
22:08:34,133,1.2906325,1.5541015, -1.2190197,0.3155857, -0.16145898, 9.729587
22:08:34,134,1.4704334,1.5547942, -1.4110966,0.3155857, -0.16145898, 9.729587
22:08:34,135,1.4704334,1.5547942, -1.4110966,-0.096216984, -0.17582418, 10.239552
22:08:34,136,1.3294345,1.5550042, -1.2762643,-0.096216984, -0.17582418, 10.239552
22:08:34,137,1.3294345,1.5550042, -1.2762643,0.18629882, 0.68369424, 9.801413
22:08:34,138,1.1778978,1.5535293, -1.1265285,0.18629882, 0.68369424, 9.801413
22:08:34,139,1.1778978,1.5535293, -1.1265285,0.3084031, 0.89917237, 9.334543
22:08:34,140,1.0227604,1.5503551, -0.9734665,0.3084031, 0.89917237, 9.334543
22:08:34,141,1.0227604,1.5503551, -0.9734665,-0.22071546, 1.380407, 9.346515
22:08:34,142,0.7342948,1.5480921, -0.68237466,-0.22071546, 1.380407, 9.346515
22:08:34,143,0.7342948,1.5480921, -0.68237466,0.15278, 0.039653964, 9.585935
22:08:34,144,0.8078497,1.5484813, -0.747473,0.15278, 0.039653964, 9.585935
22:08:35,145,0.8078497,1.5484813, -0.747473,0.12883797, 0.30301616, 9.521291
22:08:35,146,0.83286315,1.5486314, -0.76714236,0.12883797, 0.30301616, 9.521291
22:08:35,147,0.83286315,1.5486314, -0.76714236,0.16235681, 0.2240075, 9.499743
22:08:35,148,0.9211214,1.5488912, -0.8509726,0.16235681, 0.2240075, 9.499743
22:08:35,149,0.9211214,1.5488912, -0.8509726,0.17911622, 0.08035539, 9.49256
22:08:35,150,0.9241628,1.5489048, -0.854014,0.17911622, 0.08035539, 9.49256
22:08:35,151,0.9241628,1.5489048, -0.854014,0.1719336, 0.09711481, 9.506926
22:08:35,152,0.9274035,1.548962, -0.8572853,0.1719336, 0.09711481, 9.506926
22:08:35,153,0.9274035,1.548962, -0.8572853,0.18390462, 0.025288755, 9.535657
22:08:35,154,0.92958385,1.5490003, -0.85946554,0.18390462, 0.025288755, 9.535657
22:08:35,155,0.92958385,1.5490003, -0.85946554,0.14320318, 0.04683657, 9.566781
22:08:35,156,0.93286854,1.5490578, -0.8627503,0.14320318, 0.04683657, 9.566781
22:08:35,157,0.93286854,1.5490578, -0.8627503,0.19348143, 0.070778586, 9.571569
22:08:35,158,0.9361705,1.5491154, -0.86605227,0.19348143, 0.070778586, 9.571569
22:08:35,159,0.9361705,1.5491154, -0.86605227,0.19108722, 0.020500353, 9.550022
22:08:35,160,0.9403613,1.5491457, -0.87024295,0.19108722, 0.020500353, 9.550022
22:08:35,161,0.9403613,1.5491457, -0.87024295,0.16475101, 0.070778586, 9.514109
22:08:35,162,0.9414711,1.549165, -0.8713528,0.16475101, 0.070778586, 9.514109
22:08:35,163,0.9414711,1.549165, -0.8713528,0.049829323, 0.29583356, 9.504532
22:08:35,164,0.87374014,1.54815, -0.8000185,0.049829323, 0.29583356, 9.504532
22:08:35,165,0.87374014,1.54815, -0.8000185,0.20545243, 0.022894554, 9.545234
22:08:35,166,0.89956576,1.5482872, -0.8247743,0.20545243, 0.022894554, 9.545234
22:08:35,167,0.89956576,1.5482872, -0.8247743,0.24136546, 0.0851438, 9.518897
22:08:35,168,1.0230467,1.549602, -0.9433394,0.24136546, 0.0851438, 9.518897
22:08:35,169,1.0230467,1.549602, -0.9433394,0.27009588, -0.10160393, 9.542839
22:08:35,170,1.15257,1.5502969, -1.0697168,0.27009588, -0.10160393, 9.542839
22:08:35,171,1.15257,1.5502969, -1.0697168,-4.4891282E-4, 1.0500071, 9.518897
22:08:35,172,1.0466546,1.5498027, -0.94876933,-4.4891282E-4, 1.0500071, 9.518897
22:08:35,173,1.0466546,1.5498027, -0.94876933,0.11207857, 1.143381, 9.320178
22:08:35,174,1.0016329,1.5462137, -0.9060995,0.11207857, 1.143381, 9.320178
22:08:36,175,1.0016329,1.5462137, -0.9060995,0.4281132, 0.8632594, 9.487772
22:08:36,176,0.7648154,1.5387018, -0.65656286,0.4281132, 0.8632594, 9.487772
22:08:36,177,0.7648154,1.5387018, -0.65656286,0.473603, 0.3556886, 10.071958
22:08:36,178,0.76132864,1.5353596, -0.6521873,0.473603, 0.3556886, 10.071958
22:08:36,179,0.76132864,1.5353596, -0.6521873,-0.19677345, -0.51580083, 9.85648
22:08:36,180,0.7712479,1.5319257, -0.66286683,-0.19677345, -0.51580083, 9.85648
22:08:36,181,0.7712479,1.5319257, -0.66286683,0.52866966, -0.7959224, 9.990555
22:08:36,182,0.9154968,1.5350081, -0.8001485,0.52866966, -0.7959224, 9.990555
22:08:36,183,0.9154968,1.5350081, -0.8001485,0.21742344, 0.049230773, 8.640225
22:08:36,184,0.9354187,1.5367426, -0.8105011,0.21742344, 0.049230773, 8.640225
22:08:36,185,0.9354187,1.5367426, -0.8105011,0.4161422, 0.88959557, 9.569176
22:08:36,186,0.8617724,1.5306519, -0.73482895,0.4161422, 0.88959557, 9.569176
22:08:36,187,0.8617724,1.5306519, -0.73482895,0.66753334, 0.669329, 10.850073
22:08:36,188,0.9243962,1.5220501, -0.800623,0.66753334, 0.669329, 10.850073
22:08:36,189,0.9243962,1.5220501, -0.800623,0.21981764, -0.3362357, 9.497349
22:08:36,190,1.0185628,1.5262653, -0.87249196,0.21981764, -0.3362357, 9.497349
22:08:36,191,1.0185628,1.5262653, -0.87249196,0.35149872, 0.2575263, 10.304195
22:08:36,192,1.1681837,1.5324491, -1.0048238,0.35149872, 0.2575263, 10.304195
22:08:36,193,1.1681837,1.5324491, -1.0048238,-0.5223849, -2.0887914, 9.353697
22:08:36,194,1.2741867,1.539162, -1.1146339,-0.5223849, -2.0887914, 9.353697
22:08:36,195,1.2741867,1.539162, -1.1146339,-0.10579379, -0.034566287, 8.611495
22:08:36,196,1.316652,1.5398787, -1.1446031,-0.10579379, -0.034566287, 8.611495
22:08:36,197,1.316652,1.5398787, -1.1446031,0.47599724, 0.30780455, 9.3800335
22:08:36,198,0.9660429,1.532004, -0.79977304,0.47599724, 0.30780455, 9.3800335
22:08:36,199,0.9660429,1.532004, -0.79977304,-0.42661682, -0.69776016, 9.236382
22:08:36,200,0.90968966,1.5140703, -0.74635583,-0.42661682, -0.69776016, 9.236382
22:08:36,201,0.90968966,1.5140703, -0.74635583,0.62204355, -0.07766192, 9.312996
22:08:36,202,0.92999476,1.5161675, -0.75701404,0.62204355, -0.07766192, 9.312996
22:08:37,203,0.92999476,1.5161675, -0.75701404,-0.045938745, 1.8616414, 9.236382
22:08:37,204,0.8382664,1.5181011, -0.6587929,-0.045938745, 1.8616414, 9.236382
22:08:37,205,0.8382664,1.5181011, -0.6587929,-0.043544542, 0.5256769, 9.672126
22:08:37,206,0.86501276,1.5166014, -0.68427896,-0.043544542, 0.5256769, 9.672126
22:08:37,207,0.86501276,1.5166014, -0.68427896,0.51669866, -0.4966472, 9.540445
22:08:37,208,1.0668372,1.5110313, -0.89280117,0.51669866, -0.4966472, 9.540445
22:08:37,209,1.0668372,1.5110313, -0.89280117,0.042646717, 1.0787375, 9.415946
22:08:37,210,1.0864905,1.507652, -0.91207874,0.042646717, 1.0787375, 9.415946
22:08:37,211,1.0864905,1.507652, -0.91207874,0.36346975, 0.7722797, 9.573964
22:08:37,212,1.1626207,1.5005933, -0.9983923,0.36346975, 0.7722797, 9.573964
22:08:37,213,1.1626207,1.5005933, -0.9983923,0.2629133, 0.7842507, 9.550022
22:08:37,214,1.1207937,1.5072049, -0.9521429,0.2629133, 0.7842507, 9.550022
22:08:37,215,1.1207937,1.5072049, -0.9521429,0.4424784, 0.56637836, 9.514109
22:08:37,216,1.0334016,1.5146302, -0.8631437,0.4424784, 0.56637836, 9.514109
22:08:37,217,1.0334016,1.5146302, -0.8631437,0.38741177, 0.57595515, 9.447071
22:08:37,218,1.0210538,1.51588, -0.84954345,0.38741177, 0.57595515, 9.447071
22:08:37,219,1.0210538,1.51588, -0.84954345,0.2988263, 0.57834935, 9.425523
22:08:37,220,0.99137807,1.5193923, -0.81760913,0.2988263, 0.57834935, 9.425523
22:08:37,221,0.99137807,1.5193923, -0.81760913,0.24375966, 0.5496189, 9.471013
22:08:37,222,0.87655413,1.5248277, -0.7017539,0.24375966, 0.5496189, 9.471013
22:08:37,223,0.87655413,1.5248277, -0.7017539,0.09053075, 0.58792615, 9.554811
22:08:37,224,0.6677494,1.5286664, -0.4966024,0.09053075, 0.58792615, 9.554811
22:08:37,225,0.6677494,1.5286664, -0.4966024,0.2964321, 0.5232827, 9.392004
22:08:37,226,0.65540576,1.5273675, -0.48980266,0.2964321, 0.5232827, 9.392004
22:08:37,227,0.65540576,1.5273675, -0.48980266,0.121655375, 0.6142624, 9.595511
22:08:37,228,0.650104,1.5246904, -0.48954824,0.121655375, 0.6142624, 9.595511
22:08:37,229,0.650104,1.5246904, -0.48954824,0.0019452889, 0.5424363, 9.7655
22:08:37,230,0.6359311,1.5268773, -0.476848,0.0019452889, 0.5424363, 9.7655
22:08:38,231,0.6359311,1.5268773, -0.476848,0.4712088, -0.02498948, 9.454253
22:08:38,232,0.8125838,1.5288537, -0.65629154,0.4712088, -0.02498948, 9.454253
22:08:38,233,0.8125838,1.5288537, -0.65629154,0.09053075, 0.27907413, 9.339332
22:08:38,234,0.8773336,1.5302633, -0.7232795,0.09053075, 0.27907413, 9.339332
22:08:38,235,0.8773336,1.5302633, -0.7232795,0.5765537, -0.29074585, 9.954641
22:08:38,236,0.9720437,1.5378222, -0.81515235,0.5765537, -0.29074585, 9.954641
22:08:38,237,0.9720437,1.5378222, -0.81515235,0.124049574, 0.010923545, 9.791836
22:08:38,238,1.5123932,1.5470877, -1.3450412,0.124049574, 0.010923545, 9.791836
22:08:38,239,1.5123932,1.5470877, -1.3450412,0.28206688, -1.7248727, 9.210045
22:08:38,240,2.4396667,1.532705, -2.2829204,0.28206688, -1.7248727, 9.210045
22:08:38,241,2.4396667,1.532705, -2.2829204,-0.48168346, -0.8988731, 10.134207
22:08:38,242,2.5400188,1.5318965, -2.3880482,-0.48168346, -0.8988731, 10.134207
22:08:38,243,2.5400188,1.5318965, -2.3880482,0.36346975, 1.8400936, 9.751135
22:08:38,244,2.3814518,1.5363181, -2.2382717,0.36346975, 1.8400936, 9.751135
22:08:38,245,2.3814518,1.5363181, -2.2382717,-0.08903438, 1.5216649, 9.502137
22:08:38,246,1.9005144,1.5432303, -1.7858164,-0.08903438, 1.5216649, 9.502137
22:08:38,247,1.9005144,1.5432303, -1.7858164,-0.2805705, 0.5472247, 9.494955
22:08:38,248,1.6224891,1.5489757, -1.5191035,-0.2805705, 0.5472247, 9.494955
22:08:38,249,1.6224891,1.5489757, -1.5191035,0.10010756, 0.106691614, 9.712828
22:08:38,250,1.6018707,1.548121, -1.5208801,0.10010756, 0.106691614, 9.712828
22:08:38,251,1.6018707,1.548121, -1.5208801,0.21024084, 4.4186487, 9.550022
22:08:38,252,0.9472316,1.5421153, -0.8694749,0.21024084, 4.4186487, 9.550022
22:08:38,253,0.9472316,1.5421153, -0.8694749,0.4688146, -1.1167455, 10.69445
22:08:38,254,0.69874823,1.5240788, -0.6386942,0.4688146, -1.1167455, 10.69445
22:08:38,255,0.69874823,1.5240788, -0.6386942,0.042646717, -0.28116906, 9.217228
22:08:38,256,0.7228092,1.5281473, -0.66556776,0.042646717, -0.28116906, 9.217228
22:08:38,257,0.7228092,1.5281473, -0.66556776,-0.120159, 0.2240075, 7.9459066
22:08:38,258,0.71493566,1.5301839, -0.67280895,-0.120159, 0.2240075, 7.9459066
22:08:38,259,0.71493566,1.5301839, -0.67280895,0.40656537, 0.17372926, 9.250747
22:08:39,260,0.7994215,1.5336126, -0.76324946,0.40656537, 0.17372926, 9.250747
22:08:39,261,0.7994215,1.5336126, -0.76324946,0.121655375, 1.0164883, 9.712828
22:08:39,262,0.6863983,1.532898, -0.6492491,0.121655375, 1.0164883, 9.712828
22:08:39,263,0.6863983,1.532898, -0.6492491,0.9093477, 1.0619781, 9.049634
22:08:39,264,0.54286504,1.5223458, -0.5163672,0.9093477, 1.0619781, 9.049634
22:08:39,265,0.54286504,1.5223458, -0.5163672,0.8949825, -2.3521535, 10.493337
22:08:39,266,0.8799809,1.5324895, -0.85663,0.8949825, -2.3521535, 10.493337
22:08:39,267,0.8799809,1.5324895, -0.85663,0.19108722, 1.5144823, 9.200468
22:08:39,268,0.7926031,1.5291246, -0.77715755,0.19108722, 1.5144823, 9.200468
22:08:39,269,0.7926031,1.5291246, -0.77715755,0.4329016, 1.4713866, 9.676914
22:08:39,270,0.6245511,1.5123471, -0.6325807,0.4329016, 1.4713866, 9.676914
22:08:39,271,0.6245511,1.5123471, -0.6325807,0.24854806, 0.06838439, 9.442283
22:08:39,272,0.679528,1.5181814, -0.6849926,0.24854806, 0.06838439, 9.442283
22:08:39,273,0.679528,1.5181814, -0.6849926,0.18390462, 0.07796119, 9.535657
22:08:39,274,0.77502966,1.5248692, -0.77509075,0.18390462, 0.07796119, 9.535657
22:08:39,275,0.77502966,1.5248692, -0.77509075,0.19108722, 0.13063364, 9.5787525
22:08:39,276,0.79840714,1.5257103, -0.7944084,0.19108722, 0.13063364, 9.5787525
22:08:39,277,0.79840714,1.5257103, -0.7944084,0.13841479, 0.070778586, 9.6003
22:08:39,278,0.81692994,1.5278534, -0.8131753,0.13841479, 0.070778586, 9.6003
22:08:39,279,0.81692994,1.5278534, -0.8131753,0.16714521, 0.15696985, 9.585935
22:08:39,280,0.81759983,1.5280901, -0.8138453,0.16714521, 0.15696985, 9.585935
22:08:39,281,0.81759983,1.5280901, -0.8138453,0.21024084, 0.14978725, 9.502137
22:08:39,282,0.8176612,1.5281768, -0.81390667,0.21024084, 0.14978725, 9.502137
22:08:39,283,0.8176612,1.5281768, -0.81390667,0.20305823, 0.11626842, 9.518897
22:08:39,284,0.8188332,1.5283899, -0.8150786,0.20305823, 0.11626842, 9.518897
22:08:39,285,0.8188332,1.5283899, -0.8150786,0.1695394, 0.123451024, 9.612271
22:08:39,286,0.8195223,1.5286268, -0.81576777,0.1695394, 0.123451024, 9.612271
22:08:39,287,0.8195223,1.5286268, -0.81576777,0.20066403, 0.070778586, 9.454253
22:08:39,288,0.88088894,1.5316064, -0.8774093,0.20066403, 0.070778586, 9.454253
22:08:40,289,0.88088894,1.5316064, -0.8774093,0.1719336, 0.19288288, 9.530869
22:08:40,290,0.8268381,1.529698, -0.82064164,0.1719336, 0.19288288, 9.530869
22:08:40,291,0.8268381,1.529698, -0.82064164,0.037858315, 0.23837271, 9.648184
22:08:40,292,0.7846617,1.5295126, -0.78090715,0.037858315, 0.23837271, 9.648184
22:08:40,293,0.7846617,1.5295126, -0.78090715,0.413748, 0.88959557, 9.392004
22:08:40,294,0.76202226,1.5284377, -0.75170493,0.413748, 0.88959557, 9.392004
22:08:40,295,0.76202226,1.5284377, -0.75170493,-0.3835212, 0.0923264, 9.660155
22:08:40,296,0.6164568,1.5292808, -0.590541,-0.3835212, 0.0923264, 9.660155
22:08:40,297,0.6164568,1.5292808, -0.590541,0.34671032, -0.37454292, 9.784654
22:08:40,298,0.7102535,1.5324974, -0.6743255,0.34671032, -0.37454292, 9.784654
22:08:40,299,0.7102535,1.5324974, -0.6743255,0.5861305, -0.5325602, 9.449465
22:08:40,300,0.8064683,1.5369146, -0.76178026,0.5861305, -0.5325602, 9.449465
22:08:40,301,0.8064683,1.5369146, -0.76178026,0.37544075, -0.3218705, 9.339332
22:08:40,302,0.91971743,1.5374556, -0.86638904,0.37544075, -0.3218705, 9.339332
22:08:40,303,0.91971743,1.5374556, -0.86638904,-0.10100538, 2.2255602, 10.02168
22:08:40,304,0.68810594,1.5303206, -0.63358355,-0.10100538, 2.2255602, 10.02168
22:08:40,305,0.68810594,1.5303206, -0.63358355,-0.060303956, 0.13063364, 8.901193
22:08:40,306,0.6892176,1.5316643, -0.630543,-0.060303956, 0.13063364, 8.901193
22:08:40,307,0.6892176,1.5316643, -0.630543,0.21024084, 3.2167597, 9.394399
22:08:40,308,0.45074162,1.5117936, -0.38444647,0.21024084, 3.2167597, 9.394399
22:08:40,309,0.45074162,1.5117936, -0.38444647,1.2780548, 0.5137059, 8.678533
22:08:40,310,0.45208472,1.5018415, -0.39164516,1.2780548, 0.5137059, 8.678533
22:08:40,311,0.45208472,1.5018415, -0.39164516,-0.65167177, -0.013018472, 9.016114
22:08:40,312,0.36349806,1.5094, -0.2809463,-0.65167177, -0.013018472, 9.016114
22:08:40,313,0.36349806,1.5094, -0.2809463,1.3977649, 2.8456583, 9.990555
22:08:40,314,0.4089998,1.5000069, -0.32671002,1.3977649, 2.8456583, 9.990555
22:08:40,315,0.4089998,1.5000069, -0.32671002,0.4568436, -0.70494276, 8.805425
22:08:40,316,0.32339692,1.4966072, -0.23602821,0.4568436, -0.70494276, 8.805425
22:08:41,317,0.32339692,1.4966072, -0.23602821,-0.062698156, -0.046537295, 9.128642
22:08:41,318,0.36840636,1.4991833, -0.27428597,-0.062698156, -0.046537295, 9.128642
22:08:41,319,0.36840636,1.4991833, -0.27428597,-0.033967737, 0.4897639, 9.813384
22:08:41,320,0.5790589,1.5194085, -0.46836838,-0.033967737, 0.4897639, 9.813384
22:08:41,321,0.5790589,1.5194085, -0.46836838,-0.6037877, -1.2723686, 10.416722
22:08:41,322,0.58639073,1.5286622, -0.4653784,-0.6037877, -1.2723686, 10.416722
22:08:41,323,0.58639073,1.5286622, -0.4653784,-0.36676177, 0.9350854, 9.164556
22:08:41,324,0.51134294,1.5290331, -0.36888677,-0.36676177, 0.9350854, 9.164556
22:08:41,325,0.51134294,1.5290331, -0.36888677,-0.5918167, 0.60707974, 9.660155
22:08:41,326,0.40061086,1.5297793, -0.24759616,-0.5918167, 0.60707974, 9.660155
22:08:41,327,0.40061086,1.5297793, -0.24759616,0.48557404, 0.88959557, 9.368062
22:08:41,328,0.45063174,1.522458, -0.31553993,0.48557404, 0.88959557, 9.368062
22:08:41,329,0.45063174,1.522458, -0.31553993,-0.3835212, 0.9231144, 8.515726
22:08:41,330,0.4313702,1.5161675, -0.30474243,-0.3835212, 0.9231144, 8.515726
22:08:41,331,0.4313702,1.5161675, -0.30474243,0.38741177, 0.8608652, 9.832538
22:08:41,332,0.411514,1.525799, -0.28046507,0.38741177, 0.8608652, 9.832538
22:08:41,333,0.411514,1.525799, -0.28046507,0.21742344, -0.42721537, 9.229198
22:08:41,334,0.3881217,1.5259956, -0.26227298,0.21742344, -0.42721537, 9.229198
22:08:41,335,0.3881217,1.5259956, -0.26227298,0.34431612, 0.0827496, 9.832538
22:08:41,336,0.5313396,1.529849, -0.40595552,0.34431612, 0.0827496, 9.832538
22:08:41,337,0.5313396,1.529849, -0.40595552,0.071377136, 0.31738135, 9.573964
22:08:41,338,0.50211173,1.5325145, -0.37740365,0.071377136, 0.31738135, 9.573964
22:08:41,339,0.50211173,1.5325145, -0.37740365,0.19108722, 0.29104513, 9.518897
22:08:41,340,0.53347915,1.533084, -0.40901664,0.19108722, 0.29104513, 9.518897
22:08:41,341,0.53347915,1.533084, -0.40901664,0.14080898, 0.2599205, 9.487772
22:08:41,342,0.5805499,1.5348203, -0.4560588,0.14080898, 0.2599205, 9.487772
22:08:41,343,0.5805499,1.5348203, -0.4560588,0.13841479, 0.29822776, 9.490167
22:08:41,344,0.58854276,1.5340756, -0.46521306,0.13841479, 0.29822776, 9.490167
22:08:42,345,0.58854276,1.5340756, -0.46521306,0.14320318, 0.33653498, 9.581146
22:08:42,346,0.5690055,1.5340027, -0.44809192,0.14320318, 0.33653498, 9.581146
22:08:42,347,0.5690055,1.5340027, -0.44809192,0.1719336, 0.34132338, 9.538051
22:08:42,348,0.6085572,1.5345232, -0.4890202,0.1719336, 0.34132338, 9.538051
22:08:42,349,0.6085572,1.5345232, -0.4890202,0.20305823, 0.31977555, 9.504532
22:08:42,350,0.6332308,1.5342417, -0.51405936,0.20305823, 0.31977555, 9.504532
22:08:42,351,0.6332308,1.5342417, -0.51405936,0.124049574, 0.32695818, 9.576358
22:08:42,352,0.6306694,1.5383307, -0.51144075,0.124049574, 0.32695818, 9.576358
22:08:42,353,0.6306694,1.5383307, -0.51144075,0.1503858, 0.34132338, 9.545234
22:08:42,354,0.6304446,1.5382627, -0.51121587,0.1503858, 0.34132338, 9.545234
22:08:42,355,0.6304446,1.5382627, -0.51121587,0.16714521, 0.31019875, 9.511714
22:08:42,356,0.658464,1.5376133, -0.5394791,0.16714521, 0.31019875, 9.511714
22:08:42,357,0.658464,1.5376133, -0.5394791,0.19826983, 0.30062196, 9.281871
22:08:42,358,0.6913255,1.5383215, -0.57124186,0.19826983, 0.30062196, 9.281871
22:08:42,359,0.6913255,1.5383215, -0.57124186,0.19826983, 0.31259295, 9.425523
22:08:42,360,0.6797768,1.5384612, -0.5611611,0.19826983, 0.31259295, 9.425523
22:08:42,361,0.6797768,1.5384612, -0.5611611,0.05701193, 0.28386253, 9.566781
22:08:42,362,0.70042384,1.5393113, -0.5939455,0.05701193, 0.28386253, 9.566781
22:08:42,363,0.70042384,1.5393113, -0.5939455,-0.021996727, -0.24525604, 9.554811
22:08:42,364,0.9245927,1.5446714, -0.82154083,-0.021996727, -0.24525604, 9.554811
22:08:42,365,0.9245927,1.5446714, -0.82154083,-0.014814123, -0.29074585, 10.129418
22:08:42,366,1.25002,1.5482528, -1.1461452,-0.014814123, -0.29074585, 10.129418
22:08:42,367,1.25002,1.5482528, -1.1461452,-0.76419926, 1.3780127, 9.705645
22:08:42,368,1.2257296,1.5571986, -1.1231731,-0.76419926, 1.3780127, 9.705645
22:08:42,369,1.2257296,1.5571986, -1.1231731,-0.19677345, 0.6358102, 10.02168
22:08:42,370,1.4986591,1.5575811, -1.4068272,-0.19677345, 0.6358102, 10.02168
22:08:42,371,1.4986591,1.5575811, -1.4068272,-0.42901102, -0.17582418, 10.062381
22:08:42,372,2.1464531,1.5587515, -2.069894,-0.42901102, -0.17582418, 10.062381
22:08:42,373,2.1464531,1.5587515, -2.069894,0.052223526, -0.4607342, 9.588329
22:08:43,374,2.5514176,1.5542521, -2.4779727,0.052223526, -0.4607342, 9.588329
22:08:43,375,2.5514176,1.5542521, -2.4779727,0.011522096, 2.0747254, 9.760712
22:08:43,376,2.089868,1.5594602, -2.0272033,0.011522096, 2.0747254, 9.760712
22:08:43,377,2.089868,1.5594602, -2.0272033,1.1080664, -0.017806875, 9.664944
22:08:43,378,1.797652,1.5559217, -1.7572423,1.1080664, -0.017806875, 9.664944
22:08:43,379,1.797652,1.5559217, -1.7572423,-0.5104139, -0.36496612, 11.036821
22:08:43,380,1.8684298,1.5583619, -1.8452657,-0.5104139, -0.36496612, 11.036821
22:08:43,381,1.8684298,1.5583619, -1.8452657,0.32755673, 1.8831893, 9.4279175
22:08:43,382,1.8133067,1.5565479, -1.7995425,0.32755673, 1.8831893, 9.4279175
22:08:43,383,1.8133067,1.5565479, -1.7995425,-0.19916765, 0.4777929, 9.341726
22:08:43,384,1.8926755,1.5533679, -1.8902035,-0.19916765, 0.4777929, 9.341726
22:08:43,385,1.8926755,1.5533679, -1.8902035,0.19108722, 0.07796119, 10.119842
22:08:43,386,1.9201206,1.5514889, -1.9149628,0.19108722, 0.07796119, 10.119842
22:08:43,387,1.9201206,1.5514889, -1.9149628,0.119261175, 0.12823942, 9.183709
22:08:43,388,1.9890116,1.5495347, -1.9797031,0.119261175, 0.12823942, 9.183709
22:08:43,389,1.9890116,1.5495347, -1.9797031,0.4640262, -0.36496612, 9.693674
22:08:43,390,2.3619301,1.5460446, -2.348715,0.4640262, -0.36496612, 9.693674
22:08:43,391,2.3619301,1.5460446, -2.348715,0.24375966, -1.4279916, 9.320178
22:08:43,392,2.5413892,1.5413604, -2.5307066,0.24375966, -1.4279916, 9.320178
22:08:43,393,2.5413892,1.5413604, -2.5307066,0.16235681, 0.43230304, 9.676914
22:08:43,394,2.5486813,1.5425425, -2.5417225,0.16235681, 0.43230304, 9.676914
22:08:43,395,2.5486813,1.5425425, -2.5417225,0.13123219, 2.0747254, 9.293842
22:08:43,396,1.8833894,1.5527297, -1.8760648,0.13123219, 2.0747254, 9.293842
22:08:43,397,1.8833894,1.5527297, -1.8760648,0.21981764, 0.5400421, 9.62903
22:08:43,398,1.7604337,1.5519134, -1.7550317,0.21981764, 0.5400421, 9.62903
22:08:43,399,1.7604337,1.5519134, -1.7550317,0.5765537, 0.14260463, 9.478195
22:08:43,400,1.8216566,1.5500253, -1.824861,0.5765537, 0.14260463, 9.478195
22:08:43,401,1.8216566,1.5500253, -1.824861,0.0067336923, 0.39878422, 9.485378
22:08:44,402,1.5338427,1.548476, -1.5475767,0.0067336923, 0.39878422, 9.485378
22:08:44,403,1.5338427,1.548476, -1.5475767,0.45444942, 0.34132338, 9.619453
22:08:44,404,1.4152895,1.5465434, -1.4307632,0.45444942, 0.34132338, 9.619453
22:08:44,405,1.4152895,1.5465434, -1.4307632,0.09771336, 0.05641338, 9.4039755
22:08:44,406,1.2809398,1.5468799, -1.2994962,0.09771336, 0.05641338, 9.4039755
22:08:44,407,1.2809398,1.5468799, -1.2994962,0.52388126, 0.8488941, 9.770288
22:08:44,408,1.1922454,1.5431569, -1.2129387,0.52388126, 0.8488941, 9.770288
22:08:44,409,1.1922454,1.5431569, -1.2129387,0.23418285, 0.06359598, 9.530869
22:08:44,410,1.2806865,1.5439845, -1.2980529,0.23418285, 0.06359598, 9.530869
22:08:44,411,1.2806865,1.5439845, -1.2980529,0.21024084, -0.041748893, 9.571569
22:08:44,412,1.3650657,1.5443606, -1.3767551,0.21024084, -0.041748893, 9.571569
22:08:44,413,1.3650657,1.5443606, -1.3767551,0.17911622, 0.15457565, 9.542839
22:08:44,414,1.3623395,1.5444058, -1.3740289,0.17911622, 0.15457565, 9.542839
22:08:44,415,1.3623395,1.5444058, -1.3740289,0.1503858, 0.2503437, 9.516502
22:08:44,416,1.397975,1.5451342, -1.4066733,0.1503858, 0.2503437, 9.516502
22:08:44,417,1.397975,1.5451342, -1.4066733,0.14080898, 0.10908581, 9.523685
22:08:44,418,1.3948191,1.5452435, -1.4035174,0.14080898, 0.10908581, 9.523685
22:08:44,419,1.3948191,1.5452435, -1.4035174,0.20066403, 0.106691614, 9.554811
22:08:44,420,1.4211618,1.5456883, -1.4301043,0.20066403, 0.106691614, 9.554811
22:08:44,421,1.4211618,1.5456883, -1.4301043,0.16475101, 0.0923264, 9.590723
22:08:44,422,1.4267359,1.5457716, -1.4358919,0.16475101, 0.0923264, 9.590723
22:08:44,423,1.4267359,1.5457716, -1.4358919,0.18869302, 0.123451024, 9.466225
22:08:44,424,1.4227661,1.5458193, -1.4319221,0.18869302, 0.123451024, 9.466225
22:08:44,425,1.4227661,1.5458193, -1.4319221,0.1695394, 0.121056825, 9.516502
22:08:44,426,1.470277,1.5465139, -1.4799824,0.1695394, 0.121056825, 9.516502
22:08:44,427,1.470277,1.5465139, -1.4799824,0.16475101, 0.09711481, 9.49256
22:08:44,428,1.4831922,1.5467582, -1.4931723,0.16475101, 0.09711481, 9.49256
22:08:44,429,1.4831922,1.5467582, -1.4931723,0.1575684, 0.123451024, 9.61706
22:08:44,430,1.4805542,1.546783, -1.4905343,0.1575684, 0.123451024, 9.61706
22:08:45,431,1.4805542,1.546783, -1.4905343,0.16235681, 0.121056825, 9.526079
22:08:45,432,1.4898145,1.547045, -1.5000082,0.16235681, 0.121056825, 9.526079
22:08:45,433,1.4898145,1.547045, -1.5000082,0.19108722, 0.123451024, 9.49256
22:08:45,434,1.4972813,1.5470903, -1.5077498,0.19108722, 0.123451024, 9.49256
22:08:45,435,1.4972813,1.5470903, -1.5077498,0.16235681, 0.10190321, 9.561993
22:08:45,436,1.5311525,1.5474347, -1.5398812,0.16235681, 0.10190321, 9.561993
22:08:45,437,1.5311525,1.5474347, -1.5398812,0.1719336, 0.09950901, 9.506926
22:08:45,438,1.5468057,1.5475062, -1.5554734,0.1719336, 0.09950901, 9.506926
22:08:45,439,1.5468057,1.5475062, -1.5554734,0.15278, 0.070778586, 9.502137
22:08:45,440,1.5917963,1.5480815, -1.6008606,0.15278, 0.070778586, 9.502137
22:08:45,441,1.5917963,1.5480815, -1.6008606,0.16235681, 0.07317279, 9.583541
22:08:45,442,1.604152,1.548319, -1.6134909,0.16235681, 0.07317279, 9.583541
22:08:45,443,1.604152,1.548319, -1.6134909,0.13123219, 0.68608844, 9.624242
22:08:45,444,1.5387002,1.548327, -1.548558,0.13123219, 0.68608844, 9.624242
22:08:45,445,1.5387002,1.548327, -1.548558,0.23657705, -0.08245032, 9.614665
22:08:45,446,1.6654493,1.5479769, -1.6770774,0.23657705, -0.08245032, 9.614665
22:08:45,447,1.6654493,1.5479769, -1.6770774,0.461632, 0.20245968, 9.262717
22:08:45,448,1.558523,1.5468376, -1.5601406,0.461632, 0.20245968, 9.262717
22:08:45,449,1.558523,1.5468376, -1.5601406,0.3036147, 0.8560767, 9.451859
22:08:45,450,1.4047612,1.5465188, -1.3957882,0.3036147, 0.8560767, 9.451859
22:08:45,451,1.4047612,1.5465188, -1.3957882,0.18869302, 0.71721303, 9.61706
22:08:45,452,1.3018842,1.5446829, -1.2856778,0.18869302, 0.71721303, 9.61706
22:08:45,453,1.3018842,1.5446829, -1.2856778,0.37544075, 0.022894554, 9.126248
22:08:45,454,1.3467022,1.5425932, -1.3275043,0.37544075, 0.022894554, 9.126248
22:08:45,455,1.3467022,1.5425932, -1.3275043,0.34431612, 0.80819273, 9.930699
22:08:45,456,1.1394025,1.5404785, -1.1136115,0.34431612, 0.80819273, 9.930699
22:08:45,457,1.1394025,1.5404785, -1.1136115,0.38741177, 1.191265, 9.478195
22:08:45,458,0.8510031,1.5339363, -0.8181897,0.38741177, 1.191265, 9.478195
22:08:45,459,0.8510031,1.5339363, -0.8181897,0.61486095, 0.14021043, 9.411158
22:08:46,460,0.9156703,1.5267824, -0.8673437,0.61486095, 0.14021043, 9.411158
22:08:46,461,0.9156703,1.5267824, -0.8673437,1.067365, 1.9621979, 9.535657
22:08:46,462,0.94833857,1.5305349, -0.8728964,1.067365, 1.9621979, 9.535657
22:08:46,463,0.94833857,1.5305349, -0.8728964,-0.07706337, -1.5213655, 9.341726
22:08:46,464,1.1321386,1.5326674, -1.042064,-0.07706337, -1.5213655, 9.341726
22:08:46,465,1.1321386,1.5326674, -1.042064,0.40895957, -0.6211457, 9.95943
22:08:46,466,1.3410856,1.5394156, -1.218525,0.40895957, -0.6211457, 9.95943
22:08:46,467,1.3410856,1.5394156, -1.218525,0.4400842, -1.1550527, 8.951471
22:08:46,468,1.9139234,1.5476861, -1.7759248,0.4400842, -1.1550527, 8.951471
22:08:46,469,1.9139234,1.5476861, -1.7759248,-0.9246108, -0.67860657, 9.973795
22:08:46,470,2.1888816,1.543596, -2.0477889,-0.9246108, -0.67860657, 9.973795
22:08:46,471,2.1888816,1.543596, -2.0477889,-0.33084875, -0.23089083, 9.454253
22:08:46,472,2.188507,1.5436355, -2.0474143,-0.33084875, -0.23089083, 9.454253
22:08:46,473,2.188507,1.5436355, -2.0474143,-0.03875614, 0.98296946, 9.485378
22:08:46,474,1.9917018,1.5471128, -1.8496348,-0.03875614, 0.98296946, 9.485378
22:08:46,475,1.9917018,1.5471128, -1.8496348,1.0194811, -0.063296705, 10.071958
22:08:46,476,1.9793378,1.5459701, -1.841522,1.0194811, -0.063296705, 10.071958
22:08:46,477,1.9793378,1.5459701, -1.841522,-0.24226329, 0.3532944, 9.2699
22:08:46,478,1.9038694,1.5466591, -1.7804291,-0.24226329, 0.3532944, 9.2699
22:08:46,479,1.9038694,1.5466591, -1.7804291,0.4640262, -1.0425252, 9.363274
22:08:46,480,1.4336172,1.548883, -1.2984345,0.4640262, -1.0425252, 9.363274
22:08:46,481,1.4336172,1.548883, -1.2984345,0.37304655, -1.7440263, 11.058369
22:08:46,482,2.0641549,1.5455651, -1.9224837,0.37304655, -1.7440263, 11.058369
22:08:46,483,2.0641549,1.5455651, -1.9224837,0.08574235, 0.121056825, 9.609877
22:08:46,484,2.0502357,1.5459557, -1.9021084,0.08574235, 0.121056825, 9.609877
22:08:46,485,2.0502357,1.5459557, -1.9021084,0.13841479, 0.15457565, 9.576358
22:08:46,486,2.0418775,1.5469674, -1.8940265,0.13841479, 0.15457565, 9.576358
22:08:46,487,2.0418775,1.5469674, -1.8940265,0.08095395, 0.15457565, 9.497349
22:08:47,488,2.0599375,1.54705, -1.9123627,0.08095395, 0.15457565, 9.497349
22:08:47,489,2.0599375,1.54705, -1.9123627,0.119261175, 0.13063364, 9.588329
22:08:47,490,2.060787,1.5468028, -1.9136382,0.119261175, 0.13063364, 9.588329
22:08:47,491,2.060787,1.5468028, -1.9136382,0.12644377, 0.14499883, 9.506926
22:08:47,492,2.0643368,1.5472314, -1.9176491,0.12644377, 0.14499883, 9.506926
22:08:47,493,2.0643368,1.5472314, -1.9176491,0.14080898, 0.106691614, 9.538051
22:08:47,494,2.0558789,1.5473863, -1.9091911,0.14080898, 0.106691614, 9.538051
22:08:47,495,2.0558789,1.5473863, -1.9091911,0.1575684, 0.13542204, 9.499743
22:08:47,496,2.0521421,1.547491, -1.905424,0.1575684, 0.13542204, 9.499743
22:08:47,497,2.0521421,1.547491, -1.905424,0.1455974, 0.123451024, 9.561993
22:08:47,498,2.0420876,1.5478857, -1.8956455,0.1455974, 0.123451024, 9.561993
22:08:47,499,2.0420876,1.5478857, -1.8956455,0.13362639, 0.104297414, 9.523685
22:08:47,500,2.0335448,1.5478987, -1.8873769,0.13362639, 0.104297414, 9.523685
22:08:47,501,2.0335448,1.5478987, -1.8873769,0.1743278, 0.12823942, 9.482984
22:08:47,502,2.0481572,1.5481552, -1.9025111,0.1743278, 0.12823942, 9.482984
22:08:47,503,2.0481572,1.5481552, -1.9025111,0.15278, 0.106691614, 9.511714
22:08:47,504,2.0460985,1.5482079, -1.9006654,0.15278, 0.106691614, 9.511714
22:08:47,505,2.0460985,1.5482079, -1.9006654,0.104895964, 0.123451024, 9.564387
22:08:47,506,2.038932,1.5483748, -1.8934991,0.104895964, 0.123451024, 9.564387
22:08:47,507,2.038932,1.5483748, -1.8934991,0.12883797, 0.0851438, 9.490167
22:08:47,508,2.0303886,1.548551, -1.8849555,0.12883797, 0.0851438, 9.490167
22:08:47,509,2.0303886,1.548551, -1.8849555,0.09771336, 0.121056825, 9.554811
22:08:47,510,2.0196433,1.5487771, -1.8742105,0.09771336, 0.121056825, 9.554811
22:08:47,511,2.0196433,1.5487771, -1.8742105,0.071377136, 0.2240075, 9.305813
22:08:47,512,2.01577,1.5488124, -1.8703369,0.071377136, 0.2240075, 9.305813
22:08:47,513,2.01577,1.5488124, -1.8703369,0.10010756, 0.11626842, 9.535657
22:08:47,514,2.0065548,1.5490551, -1.8611219,0.10010756, 0.11626842, 9.535657
22:08:47,515,2.0065548,1.5490551, -1.8611219,-0.036361936, 0.41075522, 10.21561
22:08:48,516,2.2102556,1.5477016, -2.0670252,-0.036361936, 0.41075522, 10.21561
22:08:48,517,2.2102556,1.5477016, -2.0670252,0.27488428, -1.2460324, 9.396792
22:08:48,518,2.3971841,1.5417169, -2.2602818,0.27488428, -1.2460324, 9.396792
22:08:48,519,2.3971841,1.5417169, -2.2602818,0.025887307, 0.90156657, 9.205256
22:08:48,520,2.3307185,1.5446622, -2.1997526,0.025887307, 0.90156657, 9.205256
22:08:48,521,2.3307185,1.5446622, -2.1997526,0.18869302, 0.59032035, 9.6026945
22:08:48,522,2.225139,1.543675, -2.1061916,0.18869302, 0.59032035, 9.6026945
22:08:48,523,2.225139,1.543675, -2.1061916,-0.9293992, 0.6262334, 9.542839
22:08:48,524,2.0842652,1.551143, -1.970734,-0.9293992, 0.6262334, 9.542839
22:08:48,525,2.0842652,1.551143, -1.9