Time,Record No,Azimuth,Pitch,Roll,Accel-X,Accel-Y,Accel-Z
22:11:11,0,1.7598156,1.5520369, -1.7548715,0.33713353, 0.20724809, 9.801413
22:11:11,1,1.7598156,1.5520369, -1.7548715,0.33713353, 0.20724809, 9.801413
22:11:11,2,1.7598156,1.5520369, -1.7548715,0.33713353, 0.20724809, 9.801413
22:11:11,3,1.7598156,1.5520369, -1.7548715,0.33713353, 0.20724809, 9.801413
22:11:11,4,1.7598156,1.5520369, -1.7548715,0.33713353, 0.20724809, 9.801413
22:11:11,5,1.7598156,1.5520369, -1.7548715,0.33713353, 0.20724809, 9.801413
22:11:11,6,-0.7421787,1.5410903, -1.2087132,0.33713353, 0.20724809, 9.801413
22:11:11,7,-0.7421787,1.5410903, -1.2087132,0.2653075, 0.12584522, 9.516502
22:11:11,8,-0.25317252,1.5408564, -1.2315283,0.2653075, 0.12584522, 9.516502
22:11:11,9,-0.25317252,1.5408564, -1.2315283,0.2988263, 0.08035539, 9.533262
22:11:11,10,-0.2522732,1.5408404, -1.2324276,0.2988263, 0.08035539, 9.533262
22:11:11,11,-0.2522732,1.5408404, -1.2324276,0.3036147, 0.06359598, 9.64579
22:11:11,12,-0.22286154,1.5408067, -1.2621635,0.3036147, 0.06359598, 9.64579
22:11:11,13,-0.22286154,1.5408067, -1.2621635,0.27967268, 0.07796119, 9.533262
22:11:12,14,-0.22235583,1.5408305, -1.2626693,0.27967268, 0.07796119, 9.533262
22:11:12,15,-0.22235583,1.5408305, -1.2626693,0.2653075, 0.16175826, 9.521291
22:11:12,16,-0.22714,1.5407034, -1.2578851,0.2653075, 0.16175826, 9.521291
22:11:12,17,-0.22714,1.5407034, -1.2578851,0.45205522, -0.1949778, 9.080758
22:11:12,18,-0.1724193,1.537368, -1.2820693,0.45205522, -0.1949778, 9.080758
22:11:12,19,-0.1724193,1.537368, -1.2820693,0.2964321, 0.106691614, 9.583541
22:11:12,20,-0.112408794,1.5391225, -1.3381231,0.2964321, 0.106691614, 9.583541
22:11:12,21,-0.112408794,1.5391225, -1.3381231,0.033069912, 0.30062196, 9.612271
22:11:12,22,-0.09264623,1.5369128, -1.3346109,0.033069912, 0.30062196, 9.612271
22:11:12,23,-0.09264623,1.5369128, -1.3346109,0.48796824, 0.42272624, 9.34412
22:11:12,24,-0.17257388,1.5323513, -1.2035798,0.48796824, 0.42272624, 9.34412
22:11:12,25,-0.17257388,1.5323513, -1.2035798,0.49515083, 0.55440736, 9.12146
22:11:12,26,-0.21805333,1.5300388, -1.1332924,0.49515083, 0.55440736, 9.12146
22:11:12,27,-0.21805333,1.5300388, -1.1332924,1.3690344, 0.05641338, 8.994567
22:11:12,28,-0.076191194,1.5273798, -1.2638944,1.3690344, 0.05641338, 8.994567
22:11:12,29,-0.076191194,1.5273798, -1.2638944,0.34192193, -0.0010474633, 9.830143
22:11:12,30,0.0036733474,1.5235484, -1.3639679,0.34192193, -0.0010474633, 9.830143
22:11:12,31,0.0036733474,1.5235484, -1.3639679,-0.021996727, -0.008230069, 9.882815
22:11:12,32,-0.006943233,1.5277965, -1.3362507,-0.021996727, -0.008230069, 9.882815
22:11:12,33,-0.006943233,1.5277965, -1.3362507,0.52148706, -0.14709377, 9.518897
22:11:12,34,0.047956657,1.5270528, -1.3974481,0.52148706, -0.14709377, 9.518897
22:11:12,35,0.047956657,1.5270528, -1.3974481,0.7992145, -1.1478701, 9.62903
22:11:12,36,0.103825785,1.5280217, -1.4548618,0.7992145, -1.1478701, 9.62903
22:11:12,37,0.103825785,1.5280217, -1.4548618,0.21263504, -0.3458125, 9.79423
22:11:12,38,0.11750243,1.5335693, -1.4474969,0.21263504, -0.3458125, 9.79423
22:11:12,39,0.11750243,1.5335693, -1.4474969,0.5909189, 0.037259765, 9.875633
22:11:12,40,0.15520728,1.5293671, -1.4708121,0.5909189, 0.037259765, 9.875633
22:11:12,41,0.15520728,1.5293671, -1.4708121,0.07377134, 0.03007716, 10.241946
22:11:12,42,0.13325724,1.5307844, -1.446169,0.07377134, 0.03007716, 10.241946
22:11:13,43,0.13325724,1.5307844, -1.446169,-0.05312135, 0.31977555, 9.590723
22:11:13,44,-0.014767407,1.5305333, -1.279939,-0.05312135, 0.31977555, 9.590723
22:11:13,45,-0.014767407,1.5305333, -1.279939,1.6060604, -0.38890815, 10.69445
22:11:13,46,0.2355926,1.5252813, -1.5661526,1.6060604, -0.38890815, 10.69445
22:11:13,47,0.2355926,1.5252813, -1.5661526,-0.05551555, -0.1997662, 9.499743
22:11:13,48,0.16670041,1.5340415, -1.4769192,-0.05551555, -0.1997662, 9.499743
22:11:13,49,0.16670041,1.5340415, -1.4769192,0.53106385, 0.45385087, 8.965837
22:11:13,50,0.13861084,1.5326424, -1.4299229,0.53106385, 0.45385087, 8.965837
22:11:13,51,0.13861084,1.5326424, -1.4299229,-1.3340193, 0.56398416, 9.296236
22:11:13,52,0.06432273,1.5331552, -1.3239081,-1.3340193, 0.56398416, 9.296236
22:11:13,53,0.06432273,1.5331552, -1.3239081,0.54542905, 0.30541036, 11.800571
22:11:13,54,0.103879794,1.533619, -1.3530861,0.54542905, 0.30541036, 11.800571
22:11:13,55,0.103879794,1.533619, -1.3530861,0.5981015, 0.2264017, 8.7431755
22:11:13,56,0.039234158,1.5388471, -1.2932408,0.5981015, 0.2264017, 8.7431755
22:11:13,57,0.039234158,1.5388471, -1.2932408,-1.1927613, -0.080056116, 9.4039755
22:11:13,58,0.02735529,1.5461653, -1.2869067,-1.1927613, -0.080056116, 9.4039755
22:11:13,59,0.02735529,1.5461653, -1.2869067,0.18629882, 0.106691614, 9.576358
22:11:13,60,-0.04337422,1.548452, -1.2155915,0.18629882, 0.106691614, 9.576358
22:11:13,61,-0.04337422,1.548452, -1.2155915,0.22939445, 0.10908581, 9.521291
22:11:13,62,-0.044498023,1.5483562, -1.2144678,0.22939445, 0.10908581, 9.521291
22:11:13,63,-0.044498023,1.5483562, -1.2144678,0.25333646, 0.17133506, 9.6003
22:11:13,64,-0.048620336,1.5482739, -1.2103455,0.25333646, 0.17133506, 9.6003
22:11:13,65,-0.048620336,1.5482739, -1.2103455,0.22939445, 0.14021043, 9.569176
22:11:13,66,-0.005414657,1.5483428, -1.2538137,0.22939445, 0.14021043, 9.569176
22:11:13,67,-0.005414657,1.5483428, -1.2538137,0.22939445, 0.11148002, 9.6003
22:11:13,68,0.03423323,1.5481657, -1.2937667,0.22939445, 0.11148002, 9.6003
22:11:13,69,0.03423323,1.5481657, -1.2937667,0.23897126, 0.12823942, 9.571569
22:11:13,70,0.07234143,1.5478857, -1.3324853,0.23897126, 0.12823942, 9.571569
22:11:14,71,0.07234143,1.5478857, -1.3324853,0.25333646, 0.121056825, 9.526079
22:11:14,72,0.094669744,1.5475986, -1.3551188,0.25333646, 0.121056825, 9.526079
22:11:14,73,0.094669744,1.5475986, -1.3551188,0.25333646, 0.19288288, 9.5787525
22:11:14,74,0.1063229,1.5473125, -1.3670344,0.25333646, 0.19288288, 9.5787525
22:11:14,75,0.1063229,1.5473125, -1.3670344,0.24615386, 0.11148002, 9.533262
22:11:14,76,0.13125786,1.5470525, -1.3922746,0.24615386, 0.11148002, 9.533262
22:11:14,77,0.13125786,1.5470525, -1.3922746,0.22460605, 0.14021043, 9.518897
22:11:14,78,0.16081786,1.5465605, -1.4224449,0.22460605, 0.14021043, 9.518897
22:11:14,79,0.16081786,1.5465605, -1.4224449,0.24375966, 0.13063364, 9.5787525
22:11:14,80,0.17988746,1.5462114, -1.4418197,0.24375966, 0.13063364, 9.5787525
22:11:14,81,0.17988746,1.5462114, -1.4418197,0.22939445, 0.104297414, 9.631425
22:11:14,82,0.17813262,1.5462114, -1.4400649,0.22939445, 0.104297414, 9.631425
22:11:14,83,0.17813262,1.5462114, -1.4400649,-2.8112416, 0.45863926, 8.032098
22:11:14,84,0.08400374,1.5471103, -1.3500199,-2.8112416, 0.45863926, 8.032098
22:11:14,85,0.08400374,1.5471103, -1.3500199,-0.2757821, 0.26231474, 10.39278
22:11:14,86,0.077998474,1.554375, -1.3533667,-0.2757821, 0.26231474, 10.39278
22:11:14,87,0.077998474,1.554375, -1.3533667,-0.14888942, 0.0851438, 9.231593
22:11:14,88,-0.027089452,1.5619869, -1.2280934,-0.14888942, 0.0851438, 9.231593
22:11:14,89,-0.027089452,1.5619869, -1.2280934,-0.37633857, 0.18091187, 9.873239
22:11:14,90,-0.23640434,1.5634966, -1.0176184,-0.37633857, 0.18091187, 9.873239
22:11:14,91,-0.23640434,1.5634966, -1.0176184,-0.14649522, 0.18570027, 9.796624
22:11:14,92,-0.6160649,1.5648161, -0.6466748,-0.14649522, 0.18570027, 9.796624
22:11:14,93,-0.6160649,1.5648161, -0.6466748,0.67232174, 0.24316111, 12.490102
22:11:14,94,-0.2573533,1.5605773, -1.0161475,0.67232174, 0.24316111, 12.490102
22:11:14,95,-0.2573533,1.5605773, -1.0161475,-0.46971244, 0.020500353, 9.437494
22:11:14,96,-0.11234975,1.5644487, -1.1816473,-0.46971244, 0.020500353, 9.437494
22:11:14,97,-0.11234975,1.5644487, -1.1816473,0.96920276, -0.020201078, 10.232369
22:11:14,98,0.084906355,1.5599933, -1.3899636,0.96920276, -0.020201078, 10.232369
22:11:14,99,0.084906355,1.5599933, -1.3899636,-0.031573534, -0.755221, 6.303484
22:11:15,100,0.6101202,1.5606241, -1.9221237,-0.031573534, -0.755221, 6.303484
22:11:15,101,0.6101202,1.5606241, -1.9221237,1.2205939, 1.1361984, 11.767053
22:11:15,102,0.18169555,1.5485134, -1.4995606,1.2205939, 1.1361984, 11.767053
22:11:15,103,0.18169555,1.5485134, -1.4995606,0.7010522, 0.0013467384, 8.364892
22:11:15,104,0.29138502,1.5440869, -1.6368058,0.7010522, 0.0013467384, 8.364892
22:11:15,105,0.29138502,1.5440869, -1.6368058,0.32755673, 0.16894086, 9.827749
22:11:15,106,0.32333025,1.5442616, -1.6869211,0.32755673, 0.16894086, 9.827749
22:11:15,107,0.32333025,1.5442616, -1.6869211,1.0458173, -0.25243863, 8.798243
22:11:15,108,0.31181294,1.5346137, -1.6893346,1.0458173, -0.25243863, 8.798243
22:11:15,109,0.31181294,1.5346137, -1.6893346,0.36825815, -0.43200377, 9.178921
22:11:15,110,0.35246956,1.5329326, -1.740633,0.36825815, -0.43200377, 9.178921
22:11:15,111,0.35246956,1.5329326, -1.740633,-1.3579613, 0.7483377, 9.190891
22:11:15,112,0.32560018,1.5366342, -1.7183008,-1.3579613, 0.7483377, 9.190891
22:11:15,113,0.32560018,1.5366342, -1.7183008,0.995539, 0.28865093, 9.937882
22:11:15,114,0.28778544,1.5329263, -1.6880835,0.995539, 0.28865093, 9.937882
22:11:15,115,0.28778544,1.5329263, -1.6880835,0.6124667, 0.123451024, 10.024074
22:11:15,116,0.3570691,1.5301341, -1.7652234,0.6124667, 0.123451024, 10.024074
22:11:15,117,0.3570691,1.5301341, -1.7652234,-0.08664017, -0.3266589, 9.679309
22:11:15,118,0.41951632,1.5276899, -1.819479,-0.08664017, -0.3266589, 9.679309
22:11:15,119,0.41951632,1.5276899, -1.819479,-0.45055884, 0.26470894, 9.763105
22:11:15,120,0.38084424,1.5240419, -1.743508,-0.45055884, 0.26470894, 9.763105
22:11:15,121,0.38084424,1.5240419, -1.743508,0.3131915, 0.11148002, 9.478195
22:11:15,122,0.3774472,1.5244273, -1.7361397,0.3131915, 0.11148002, 9.478195
22:11:15,123,0.3774472,1.5244273, -1.7361397,0.2964321, 0.09711481, 9.511714
22:11:15,124,0.3736973,1.5246077, -1.7323898,0.2964321, 0.09711481, 9.511714
22:11:15,125,0.3736973,1.5246077, -1.7323898,0.2988263, 0.11866262, 9.648184
22:11:15,126,0.36833152,1.5252093, -1.727329,0.2988263, 0.11866262, 9.648184
22:11:15,127,0.36833152,1.5252093, -1.727329,0.32276833, 0.09711481, 9.535657
22:11:15,128,0.37961465,1.5258945, -1.7391984,0.32276833, 0.09711481, 9.535657
22:11:16,129,0.37961465,1.5258945, -1.7391984,0.23657705, 0.01810615, 9.504532
22:11:16,130,0.37887487,1.5260155, -1.7384586,0.23657705, 0.01810615, 9.504532
22:11:16,131,0.37887487,1.5260155, -1.7384586,0.32276833, 0.09711481, 9.528474
22:11:16,132,0.37499893,1.5261984, -1.7345828,0.32276833, 0.09711481, 9.528474
22:11:16,133,0.37499893,1.5261984, -1.7345828,0.3107973, 0.06838439, 9.533262
22:11:16,134,0.37477133,1.5265123, -1.734684,0.3107973, 0.06838439, 9.533262
22:11:16,135,0.37477133,1.5265123, -1.734684,0.2916437, 0.11626842, 9.523685
22:11:16,136,0.37278783,1.5256615, -1.7331965,0.2916437, 0.11626842, 9.523685
22:11:16,137,0.37278783,1.5256615, -1.7331965,0.2988263, 0.12584522, 9.511714
22:11:16,138,0.35174114,1.5259291, -1.7048128,0.2988263, 0.12584522, 9.511714
22:11:16,139,0.35174114,1.5259291, -1.7048128,0.3155857, 0.13063364, 9.499743
22:11:16,140,0.34345022,1.5264034, -1.6953729,0.3155857, 0.13063364, 9.499743
22:11:16,141,0.34345022,1.5264034, -1.6953729,0.3107973, 0.0827496, 9.593118
22:11:16,142,0.3483652,1.5269032, -1.700941,0.3107973, 0.0827496, 9.593118
22:11:16,143,0.3483652,1.5269032, -1.700941,0.28446108, 0.058807578, 9.588329
22:11:16,144,0.34500042,1.5270269, -1.6975763,0.28446108, 0.058807578, 9.588329
22:11:16,145,0.34500042,1.5270269, -1.6975763,0.35868135, 0.14739305, 9.535657
22:11:16,146,0.3423501,1.5270991, -1.6949259,0.35868135, 0.14739305, 9.535657
22:11:16,147,0.3423501,1.5270991, -1.6949259,0.36825815, 0.121056825, 9.50932
22:11:16,148,0.33785504,1.5274513, -1.6910173,0.36825815, 0.121056825, 9.50932
22:11:16,149,0.33785504,1.5274513, -1.6910173,0.51191026, 0.0947206, 9.528474
22:11:16,150,0.33010173,1.5262291, -1.6730953,0.51191026, 0.0947206, 9.528474
22:11:16,151,0.33010173,1.5262291, -1.6730953,0.710629, 0.19048867, 9.504532
22:11:16,152,0.29227516,1.5239526, -1.6201794,0.710629, 0.19048867, 9.504532
22:11:16,153,0.29227516,1.5239526, -1.6201794,0.62204355, -0.07287352, 9.648184
22:11:16,154,0.3001572,1.5235445, -1.6260159,0.62204355, -0.07287352, 9.648184
22:11:16,155,0.3001572,1.5235445, -1.6260159,1.4384663, 0.7363667, 9.61706
22:11:16,156,0.22728457,1.5194619, -1.5414268,1.4384663, 0.7363667, 9.61706
22:11:17,157,0.22728457,1.5194619, -1.5414268,1.2349591, 0.32935238, 9.399187
22:11:17,158,0.18607655,1.5157022, -1.4936743,1.2349591, 0.32935238, 9.399187
22:11:17,159,0.18607655,1.5157022, -1.4936743,-0.15128362, 0.46103346, 9.751135
22:11:17,160,0.17706375,1.5206667, -1.4721069,-0.15128362, 0.46103346, 9.751135
22:11:17,161,0.17706375,1.5206667, -1.4721069,0.27488428, 0.49455228, 9.080758
22:11:17,162,0.12787685,1.5213047, -1.4123942,0.27488428, 0.49455228, 9.080758
22:11:17,163,0.12787685,1.5213047, -1.4123942,0.37783495, 0.19048867, 10.572346
22:11:17,164,0.16282754,1.5222352, -1.4328564,0.37783495, 0.19048867, 10.572346
22:11:17,165,0.16282754,1.5222352, -1.4328564,0.55021745, 0.79861593, 8.925135
22:11:17,166,0.13194779,1.5212289, -1.3865957,0.55021745, 0.79861593, 8.925135
22:11:17,167,0.13194779,1.5212289, -1.3865957,0.5789479, 0.44666827, 9.741558
22:11:17,168,0.10744759,1.5243053, -1.3528152,0.5789479, 0.44666827, 9.741558
22:11:17,169,0.10744759,1.5243053, -1.3528152,1.2373533, 0.58074355, 9.487772
22:11:17,170,0.12773171,1.5203241, -1.3669354,1.2373533, 0.58074355, 9.487772
22:11:17,171,0.12773171,1.5203241, -1.3669354,-1.1209353, 0.3580828, 11.04161
22:11:17,172,0.08971864,1.527281, -1.3222086,-1.1209353, 0.3580828, 11.04161
22:11:17,173,0.08971864,1.527281, -1.3222086,1.3666402, 0.0947206, 10.107871
22:11:17,174,0.11483663,1.5249732, -1.3447537,1.3666402, 0.0947206, 10.107871
22:11:17,175,0.11483663,1.5249732, -1.3447537,-1.010802, 1.1697172, 9.48059
22:11:17,176,0.05852372,1.5355282, -1.351783,-1.010802, 1.1697172, 9.48059
22:11:17,177,0.05852372,1.5355282, -1.351783,0.4664204, -0.35538933, 7.227646
22:11:17,178,0.113890916,1.5347706, -1.4149703,0.4664204, -0.35538933, 7.227646
22:11:17,179,0.113890916,1.5347706, -1.4149703,-0.22310968, 0.10190321, 9.64579
22:11:17,180,0.04943802,1.530306, -1.3120508,-0.22310968, 0.10190321, 9.64579
22:11:17,181,0.04943802,1.530306, -1.3120508,1.1679215, 0.31498715, 10.560375
22:11:17,182,1.2261042E-4,1.5252656, -1.2402205,1.1679215, 0.31498715, 10.560375
22:11:17,183,1.2261042E-4,1.5252656, -1.2402205,0.1551742, 0.2287959, 10.385598
22:11:17,184,0.02989048,1.521194, -1.2553889,0.1551742, 0.2287959, 10.385598
22:11:18,185,0.02989048,1.521194, -1.2553889,-0.18480244, 0.6501754, 9.717616
22:11:18,186,-0.043451816,1.5227363, -1.173306,-0.18480244, 0.6501754, 9.717616
22:11:18,187,-0.043451816,1.5227363, -1.173306,0.22939445, 0.5017349, 9.897181
22:11:18,188,-0.07695927,1.528733, -1.1373907,0.22939445, 0.5017349, 9.897181
22:11:18,189,-0.07695927,1.528733, -1.1373907,0.10010756, 0.20245968, 9.585935
22:11:18,190,0.034375582,1.5336174, -1.2568952,0.10010756, 0.20245968, 9.585935
22:11:18,191,0.034375582,1.5336174, -1.2568952,0.22939445, 0.12823942, 9.535657
22:11:18,192,0.04275573,1.5337926, -1.2660207,0.22939445, 0.12823942, 9.535657
22:11:18,193,0.04275573,1.5337926, -1.2660207,0.23897126, 0.19527708, 9.588329
22:11:18,194,-0.0016869251,1.5329263, -1.2219504,0.23897126, 0.19527708, 9.588329
22:11:18,195,-0.0016869251,1.5329263, -1.2219504,0.18629882, 0.14260463, 9.540445
22:11:18,196,0.018348964,1.5337733, -1.2422739,0.18629882, 0.14260463, 9.540445
22:11:18,197,0.018348964,1.5337733, -1.2422739,0.22460605, 0.15457565, 9.561993
22:11:18,198,0.07656967,1.5348252, -1.3007396,0.22460605, 0.15457565, 9.561993
22:11:18,199,0.07656967,1.5348252, -1.3007396,0.24854806, 0.121056825, 9.624242
22:11:18,200,0.04593744,1.5346154, -1.2700825,0.24854806, 0.121056825, 9.624242
22:11:18,201,0.04593744,1.5346154, -1.2700825,0.22700025, 0.14260463, 9.487772
22:11:18,202,0.045117132,1.5346764, -1.2692622,0.22700025, 0.14260463, 9.487772
22:11:18,203,0.045117132,1.5346764, -1.2692622,0.22700025, 0.17612346, 9.547627
22:11:18,204,0.0772853,1.5355891, -1.3019804,0.22700025, 0.17612346, 9.547627
22:11:18,205,0.0772853,1.5355891, -1.3019804,0.24854806, 0.16654666, 9.552416
22:11:18,206,0.073932394,1.5356858, -1.2986275,0.24854806, 0.16654666, 9.552416
22:11:18,207,0.073932394,1.5356858, -1.2986275,0.2653075, 0.18809447, 9.583541
22:11:18,208,0.070137806,1.5357163, -1.294833,0.2653075, 0.18809447, 9.583541
22:11:18,209,0.070137806,1.5357163, -1.294833,0.25333646, 0.15696985, 9.581146
22:11:18,210,0.06878611,1.5357537, -1.2934812,0.25333646, 0.15696985, 9.581146
22:11:18,211,0.06878611,1.5357537, -1.2934812,0.27009588, 0.18809447, 9.542839
22:11:18,212,0.06552644,1.5358065, -1.2902216,0.27009588, 0.18809447, 9.542839
22:11:18,213,0.06552644,1.5358065, -1.2902216,0.34910452, 0.09711481, 9.564387
22:11:19,214,0.06361992,1.5358219, -1.288315,0.34910452, 0.09711481, 9.564387
22:11:19,215,0.06361992,1.5358219, -1.288315,0.05940613, 0.49455228, 9.6003
22:11:19,216,0.07311143,1.5306445, -1.3060489,0.05940613, 0.49455228, 9.6003
22:11:19,217,0.07311143,1.5306445, -1.3060489,0.49275663, -0.08484452, 9.499743
22:11:19,218,0.12075112,1.5244569, -1.3596638,0.49275663, -0.08484452, 9.499743
22:11:19,219,0.12075112,1.5244569, -1.3596638,0.52866966, -0.26919806, 9.889998
22:11:19,220,0.12994088,1.5300213, -1.3625057,0.52866966, -0.26919806, 9.889998
22:11:19,221,0.12994088,1.5300213, -1.3625057,-4.132841, -1.6793828, 6.8733044
22:11:19,222,-0.011063479,1.5356349, -1.22896,-4.132841, -1.6793828, 6.8733044
22:11:19,223,-0.011063479,1.5356349, -1.22896,-1.6931496, -1.1263223, 9.140614
22:11:19,224,1.3805676,1.5655829, -2.6307447,-1.6931496, -1.1263223, 9.140614
22:11:19,225,1.3805676,1.5655829, -2.6307447,0.3179799, 0.4825813, 9.095123
22:11:19,226,1.3199686,1.5638738, -2.571171,0.3179799, 0.4825813, 9.095123
22:11:19,227,1.3199686,1.5638738, -2.571171,0.50712186, 0.29583356, 8.934711
22:11:19,228,1.2229576,1.5637205, -2.4693067,0.50712186, 0.29583356, 8.934711
22:11:19,229,1.2229576,1.5637205, -2.4693067,-0.6037877, -0.42003277, 8.953865
22:11:19,230,1.7609986,1.5626991, -3.0100403,-0.6037877, -0.42003277, 8.953865
22:11:19,231,1.7609986,1.5626991, -3.0100403,0.28446108, 0.45385087, 9.2699
22:11:19,232,1.6072723,1.5650189, -2.865666,0.28446108, 0.45385087, 9.2699
22:11:19,233,1.6072723,1.5650189, -2.865666,-0.75701666, 0.4849755, 9.023297
22:11:19,234,2.3016925,1.5658891, 2.7160428,-0.75701666, 0.4849755, 9.023297
22:11:19,235,2.3016925,1.5658891, 2.7160428,-0.6109703, 0.19288288, 9.969007
22:11:19,236,2.0969157,1.5665116, 2.9029539,-0.6109703, 0.19288288, 9.969007
22:11:19,237,2.0969157,1.5665116, 2.9029539,-0.5223849, -0.14230536, 9.291448
22:11:19,238,2.2894325,1.5640393, 2.6895382,-0.5223849, -0.14230536, 9.291448
22:11:19,239,2.2894325,1.5640393, 2.6895382,-0.5295675, -0.14230536, 9.681703
22:11:19,240,2.4719718,1.561278, 2.5040202,-0.5295675, -0.14230536, 9.681703
22:11:19,241,2.4719718,1.561278, 2.5040202,0.16235681, 0.44666827, 10.045622
22:11:19,242,2.4860244,1.5638393, 2.4860244,0.16235681, 0.44666827, 10.045622
22:11:20,243,2.4860244,1.5638393, 2.4860244,0.38741177, -0.058508303, 9.928306
22:11:20,244,2.265282,1.5670617, 2.692019,0.38741177, -0.058508303, 9.928306
22:11:20,245,2.265282,1.5670617, 2.692019,1.946037, -2.5676317, 9.564387
22:11:20,246,1.5524694,1.5561031, -2.8977284,1.946037, -2.5676317, 9.564387
22:11:20,247,1.5524694,1.5561031, -2.8977284,0.7800608, -0.14709377, 9.119065
22:11:20,248,1.4032531,1.5551826, -2.7460814,0.7800608, -0.14709377, 9.119065
22:11:20,249,1.4032531,1.5551826, -2.7460814,0.5813421, -0.20934302, 9.049634
22:11:20,250,1.2653338,1.5529021, -2.612566,0.5813421, -0.20934302, 9.049634
22:11:20,251,1.2653338,1.5529021, -2.612566,-0.3978864, -0.06808511, 9.3082075
22:11:20,252,1.0790893,1.5495347, -2.4291432,-0.3978864, -0.06808511, 9.3082075
22:11:20,253,1.0790893,1.5495347, -2.4291432,0.3060089, 0.56158996, 9.62903
22:11:20,254,0.8410123,1.5491787, -2.1762712,0.3060089, 0.56158996, 9.62903
22:11:20,255,0.8410123,1.5491787, -2.1762712,1.3977649, 0.106691614, 9.166949
22:11:20,256,0.55921775,1.53654, -1.9067549,1.3977649, 0.106691614, 9.166949
22:11:20,257,0.55921775,1.53654, -1.9067549,0.2940379, 0.106691614, 9.530869
22:11:20,258,0.5444728,1.5363855, -1.8963953,0.2940379, 0.106691614, 9.530869
22:11:20,259,0.5444728,1.5363855, -1.8963953,0.2964321, 0.070778586, 9.593118
22:11:20,260,0.51540875,1.5367005, -1.868828,0.2964321, 0.070778586, 9.593118
22:11:20,261,0.51540875,1.5367005, -1.868828,0.2653075, 0.07556699, 9.554811
22:11:20,262,0.509741,1.5364966, -1.8638991,0.2653075, 0.07556699, 9.554811
22:11:20,263,0.509741,1.5364966, -1.8638991,0.28206688, 0.07796119, 9.487772
22:11:20,264,0.5016072,1.5365175, -1.8561561,0.28206688, 0.07796119, 9.487772
22:11:20,265,0.5016072,1.5365175, -1.8561561,0.27009588, 0.04683657, 9.552416
22:11:20,266,0.5001022,1.5365627, -1.8546512,0.27009588, 0.04683657, 9.552416
22:11:20,267,0.5001022,1.5365627, -1.8546512,0.25573066, 0.0851438, 9.566781
22:11:20,268,0.4982114,1.5363752, -1.8533897,0.25573066, 0.0851438, 9.566781
22:11:20,269,0.4982114,1.5363752, -1.8533897,0.2677017, 0.087538, 9.566781
22:11:20,270,0.50351256,1.536223, -1.859363,0.2677017, 0.087538, 9.566781
22:11:21,271,0.50351256,1.536223, -1.859363,0.2916437, 0.10190321, 9.607483
22:11:21,272,0.49763507,1.5361438, -1.8538334,0.2916437, 0.10190321, 9.607483
22:11:21,273,0.49763507,1.5361438, -1.8538334,0.32276833, 0.07796119, 9.557204
22:11:21,274,0.4945167,1.5361645, -1.850715,0.32276833, 0.07796119, 9.557204
22:11:21,275,0.4945167,1.5361645, -1.850715,0.2940379, 0.13063364, 9.550022
22:11:21,276,0.48885128,1.5363128, -1.8450496,0.2940379, 0.13063364, 9.550022
22:11:21,277,0.48885128,1.5363128, -1.8450496,0.2605191, 0.11387422, 9.454253
22:11:21,278,0.48268563,1.5364202, -1.8388648,0.2605191, 0.11387422, 9.454253
22:11:21,279,0.48268563,1.5364202, -1.8388648,0.2629133, 0.0899322, 9.482984
22:11:21,280,0.4713487,1.5363855, -1.827852,0.2629133, 0.0899322, 9.482984
22:11:21,281,0.4713487,1.5363855, -1.827852,0.28924948, 0.058807578, 9.612271
22:11:21,282,0.46900263,1.536415, -1.8255061,0.28924948, 0.058807578, 9.612271
22:11:21,283,0.46900263,1.536415, -1.8255061,0.2940379, 0.10190321, 9.466225
22:11:21,284,0.4631193,1.5364914, -1.8196228,0.2940379, 0.10190321, 9.466225
22:11:21,285,0.4631193,1.5364914, -1.8196228,0.27249008, 0.14021043, 9.569176
22:11:21,286,0.45683387,1.536594, -1.8133372,0.27249008, 0.14021043, 9.569176
22:11:21,287,0.45683387,1.536594, -1.8133372,0.3107973, 0.0947206, 9.504532
22:11:21,288,0.44825804,1.5365592, -1.8051094,0.3107973, 0.0947206, 9.504532
22:11:21,289,0.44825804,1.5365592, -1.8051094,0.3131915, 0.11626842, 9.538051
22:11:21,290,0.44468975,1.5366011, -1.8015411,0.3131915, 0.11626842, 9.538051
22:11:21,291,0.44468975,1.5366011, -1.8015411,0.28924948, 0.0899322, 9.540445
22:11:21,292,0.44019115,1.5367005, -1.7973238,0.28924948, 0.0899322, 9.540445
22:11:21,293,0.44019115,1.5367005, -1.7973238,0.8016087, -0.08245032, 9.758317
22:11:21,294,0.41667852,1.5342563, -1.7796888,0.8016087, -0.08245032, 9.758317
22:11:21,295,0.41667852,1.5342563, -1.7796888,0.6914754, 0.19767128, 9.382427
22:11:21,296,0.3229778,1.5290302, -1.6863893,0.6914754, 0.19767128, 9.382427
22:11:21,297,0.3229778,1.5290302, -1.6863893,0.65795654, 0.22161329, 9.3800335
22:11:21,298,0.3190658,1.5288892, -1.6824774,0.65795654, 0.22161329, 9.3800335
22:11:21,299,0.3190658,1.5288892, -1.6824774,0.13602059, 0.46342766, 9.887604
22:11:22,300,0.26899782,1.5263228, -1.6303408,0.13602059, 0.46342766, 9.887604
22:11:22,301,0.26899782,1.5263228, -1.6303408,0.96680856, 0.2240075, 10.299407
22:11:22,302,0.17309262,1.5227164, -1.5432608,0.96680856, 0.2240075, 10.299407
22:11:22,303,0.17309262,1.5227164, -1.5432608,-0.2685995, -0.72170216, 8.937106
22:11:22,304,0.198008,1.5243065, -1.5578065,-0.2685995, -0.72170216, 8.937106
22:11:22,305,0.198008,1.5243065, -1.5578065,0.21024084, 0.5304653, 9.597906
22:11:22,306,0.14031665,1.5239221, -1.490342,0.21024084, 0.5304653, 9.597906
22:11:22,307,0.14031665,1.5239221, -1.490342,1.0003273, 0.04683657, 9.552416
22:11:22,308,0.15150751,1.5118006, -1.4866133,1.0003273, 0.04683657, 9.552416
22:11:22,309,0.15150751,1.5118006, -1.4866133,-0.5343559, 0.2240075, 9.0855465
22:11:22,310,0.16417237,1.5205632, -1.4805369,-0.5343559, 0.2240075, 9.0855465
22:11:22,311,0.16417237,1.5205632, -1.4805369,0.52627546, 0.3532944, 10.397569
22:11:22,312,0.16961554,1.5208037, -1.4711307,0.52627546, 0.3532944, 10.397569
22:11:22,313,0.16961554,1.5208037, -1.4711307,-1.781735, -0.27398646, 9.454253
22:11:22,314,0.3564416,1.5382134, -1.6387618,-1.781735, -0.27398646, 9.454253
22:11:22,315,0.3564416,1.5382134, -1.6387618,-0.55590373, 0.14499883, 9.447071
22:11:22,316,0.41988227,1.5454544, -1.7082152,-0.55590373, 0.14499883, 9.447071
22:11:22,317,0.41988227,1.5454544, -1.7082152,0.7920318, 0.33414078, 10.4789715
22:11:22,318,0.42579815,1.5513412, -1.6930661,0.7920318, 0.33414078, 10.4789715
22:11:22,319,0.42579815,1.5513412, -1.6930661,-0.15128362, 0.13781624, 7.8621097
22:11:22,320,0.52026814,1.5518913, -1.7763528,-0.15128362, 0.13781624, 7.8621097
22:11:22,321,0.52026814,1.5518913, -1.7763528,-0.33084875, 0.2335843, 9.801413
22:11:22,322,0.5393575,1.5543534, -1.7895277,-0.33084875, 0.2335843, 9.801413
22:11:22,323,0.5393575,1.5543534, -1.7895277,-0.4122516, -0.41524437, 10.138995
22:11:22,324,0.35676402,1.5543497, -1.6129408,-0.4122516, -0.41524437, 10.138995
22:11:22,325,0.35676402,1.5543497, -1.6129408,-0.49365446, -0.02498948, 9.648184
22:11:22,326,0.29000804,1.5545063, -1.5518436,-0.49365446, -0.02498948, 9.648184
22:11:22,327,0.29000804,1.5545063, -1.5518436,-0.5152023, 0.24555531, 9.605088
22:11:22,328,0.1539893,1.5571593, -1.410478,-0.5152023, 0.24555531, 9.605088
22:11:23,329,0.1539893,1.5571593, -1.410478,0.25333646, 0.20724809, 9.561993
22:11:23,330,0.119373165,1.5562621, -1.3712285,0.25333646, 0.20724809, 9.561993
22:11:23,331,0.119373165,1.5562621, -1.3712285,0.25333646, 0.19288288, 9.554811
22:11:23,332,0.109658405,1.5560626, -1.3615136,0.25333646, 0.19288288, 9.554811
22:11:23,333,0.109658405,1.5560626, -1.3615136,0.21263504, 0.17133506, 9.557204
22:11:23,334,0.15648961,1.5547422, -1.4089304,0.21263504, 0.17133506, 9.557204
22:11:23,335,0.15648961,1.5547422, -1.4089304,0.23178865, 0.2335843, 9.526079
22:11:23,336,0.15773,1.5538534, -1.4105185,0.23178865, 0.2335843, 9.526079
22:11:23,337,0.15773,1.5538534, -1.4105185,0.24136546, 0.18091187, 9.581146
22:11:23,338,0.15148042,1.5532316, -1.4045742,0.24136546, 0.18091187, 9.581146
22:11:23,339,0.15148042,1.5532316, -1.4045742,0.28924948, 0.18091187, 9.432706
22:11:23,340,0.14182131,1.553056, -1.3949151,0.28924948, 0.18091187, 9.432706
22:11:23,341,0.14182131,1.553056, -1.3949151,0.20545243, 0.20964229, 9.576358
22:11:23,342,0.1528511,1.5526474, -1.4060547,0.20545243, 0.20964229, 9.576358
22:11:23,343,0.1528511,1.5526474, -1.4060547,0.24375966, 0.18091187, 9.490167
22:11:23,344,0.19448787,1.5521165, -1.447954,0.24375966, 0.18091187, 9.490167
22:11:23,345,0.19448787,1.5521165, -1.447954,0.24854806, 0.17133506, 9.50932
22:11:23,346,0.28122103,1.5512495, -1.5352728,0.24854806, 0.17133506, 9.50932
22:11:23,347,0.28122103,1.5512495, -1.5352728,0.23657705, 0.20724809, 9.542839
22:11:23,348,0.2685438,1.5511674, -1.5225956,0.23657705, 0.20724809, 9.542839
22:11:23,349,0.2685438,1.5511674, -1.5225956,0.1743278, 0.26470894, 9.473407
22:11:23,350,0.24435385,1.550977, -1.4986929,0.1743278, 0.26470894, 9.473407
22:11:23,351,0.24435385,1.550977, -1.4986929,0.24854806, 0.19527708, 9.585935
22:11:23,352,0.3017733,1.5504515, -1.5564175,0.24854806, 0.19527708, 9.585935
22:11:23,353,0.3017733,1.5504515, -1.5564175,0.5693711, -0.50382984, 9.559599
22:11:23,354,0.31822515,1.5495712, -1.5731745,0.5693711, -0.50382984, 9.559599
22:11:23,355,0.31822515,1.5495712, -1.5731745,0.19587563, 0.39639002, 9.648184
22:11:23,356,0.043359283,1.5431503, -1.2754353,0.19587563, 0.39639002, 9.648184
22:11:24,357,0.043359283,1.5431503, -1.2754353,-1.709909, 0.90156657, 10.112659
22:11:24,358,-0.01483342,1.5385628, -1.2002923,-1.709909, 0.90156657, 10.112659
22:11:24,359,-0.01483342,1.5385628, -1.2002923,0.48557404, 1.1984476, 9.667337
22:11:24,360,-0.12063542,1.539956, -1.0948455,0.48557404, 1.1984476, 9.667337
22:11:24,361,-0.12063542,1.539956, -1.0948455,-0.8264485, -0.31708208, 9.363274
22:11:24,362,-0.028351797,1.5444465, -1.1934352,-0.8264485, -0.31708208, 9.363274
22:11:24,363,-0.028351797,1.5444465, -1.1934352,0.43769, -0.36017773, 10.256311
22:11:24,364,-0.07637733,1.5484173, -1.1562809,0.43769, -0.36017773, 10.256311
22:11:24,365,-0.07637733,1.5484173, -1.1562809,-1.3842975, 0.20964229, 8.599524
22:11:24,366,-0.1635797,1.562517, -1.0875801,-1.3842975, 0.20964229, 8.599524
22:11:24,367,-0.1635797,1.562517, -1.0875801,0.14080898, 0.30062196, 9.413552
22:11:24,368,0.057115585,1.5634884, -1.3184575,0.14080898, 0.30062196, 9.413552
22:11:24,369,0.057115585,1.5634884, -1.3184575,0.16235681, 0.46342766, 9.044846
22:11:24,370,0.18921588,1.5607716, -1.467734,0.16235681, 0.46342766, 9.044846
22:11:24,371,0.18921588,1.5607716, -1.467734,0.35868135, 0.14739305, 9.969007
22:11:24,372,0.32741362,1.5532656, -1.6323795,0.35868135, 0.14739305, 9.969007
22:11:24,373,0.32741362,1.5532656, -1.6323795,-0.6349124, -0.1830068, 9.46383
22:11:24,374,0.52846,1.5560545, -1.8582712,-0.6349124, -0.1830068, 9.46383
22:11:24,375,0.52846,1.5560545, -1.8582712,0.19587563, 0.3748422, 10.045622
22:11:24,376,0.45157766,1.5557543, -1.7917558,0.19587563, 0.3748422, 10.045622
22:11:24,377,0.45157766,1.5557543, -1.7917558,0.94047236, -0.07287352, 9.791836
22:11:24,378,0.5396932,1.5513504, -1.8968488,0.94047236, -0.07287352, 9.791836
22:11:24,379,0.5396932,1.5513504, -1.8968488,0.6890812, -0.17582418, 9.38961
22:11:24,380,0.47221312,1.5508301, -1.8487593,0.6890812, -0.17582418, 9.38961
22:11:24,381,0.47221312,1.5508301, -1.8487593,0.6842928, 0.0899322, 9.226805
22:11:24,382,0.35036245,1.5496415, -1.7425587,0.6842928, 0.0899322, 9.226805
22:11:24,383,0.35036245,1.5496415, -1.7425587,0.61964935, 0.025288755, 9.933094
22:11:24,384,0.3280746,1.5470978, -1.7282621,0.61964935, 0.025288755, 9.933094
22:11:25,385,0.3280746,1.5470978, -1.7282621,-0.44816464, 0.33174658, 9.810989
22:11:25,386,0.33138698,1.5475677, -1.7464911,-0.44816464, 0.33174658, 9.810989
22:11:25,387,0.33138698,1.5475677, -1.7464911,0.8231565, 0.24316111, 9.518897
22:11:25,388,0.28707653,1.5396866, -1.7100729,0.8231565, 0.24316111, 9.518897
22:11:25,389,0.28707653,1.5396866, -1.7100729,0.8925883, -0.0058358666, 9.760712
22:11:25,390,0.27933985,1.5321872, -1.7046641,0.8925883, -0.0058358666, 9.760712
22:11:25,391,0.27933985,1.5321872, -1.7046641,2.2477064, -0.5541081, 9.291448
22:11:25,392,0.32510296,1.5218914, -1.7551299,2.2477064, -0.5541081, 9.291448
22:11:25,393,0.32510296,1.5218914, -1.7551299,0.4352958, 0.039653964, 9.571569
22:11:25,394,0.31336176,1.5224259, -1.7450112,0.4352958, 0.039653964, 9.571569
22:11:25,395,0.31336176,1.5224259, -1.7450112,0.2964321, 0.104297414, 9.497349
22:11:25,396,0.30563265,1.523372, -1.7317225,0.2964321, 0.104297414, 9.497349
22:11:25,397,0.30563265,1.523372, -1.7317225,0.20784664, 0.025288755, 9.547627
22:11:25,398,0.31212178,1.5240278, -1.7385592,0.20784664, 0.025288755, 9.547627
22:11:25,399,0.31212178,1.5240278, -1.7385592,0.3012205, 0.09950901, 9.545234
22:11:25,400,0.310206,1.5241171, -1.7366434,0.3012205, 0.09950901, 9.545234
22:11:25,401,0.310206,1.5241171, -1.7366434,0.33952773, 0.121056825, 9.485378
22:11:25,402,0.30367187,1.5243644, -1.7304769,0.33952773, 0.121056825, 9.485378
22:11:25,403,0.30367187,1.5243644, -1.7304769,0.2940379, 0.0851438, 9.573964
22:11:25,404,0.30034375,1.524556, -1.7271287,0.2940379, 0.0851438, 9.573964
22:11:25,405,0.30034375,1.524556, -1.7271287,0.25812486, 0.12823942, 9.504532
22:11:25,406,0.2962725,1.5247991, -1.7230575,0.25812486, 0.12823942, 9.504532
22:11:25,407,0.2962725,1.5247991, -1.7230575,0.32995093, 0.07317279, 9.552416
22:11:25,408,0.29464933,1.5248601, -1.7214344,0.32995093, 0.07317279, 9.552416
22:11:25,409,0.29464933,1.5248601, -1.7214344,0.2916437, 0.13542204, 9.516502
22:11:25,410,0.2880998,1.5255427, -1.7152754,0.2916437, 0.13542204, 9.516502
22:11:25,411,0.2880998,1.5255427, -1.7152754,0.2964321, 0.10908581, 9.621848
22:11:25,412,0.28368315,1.5257407, -1.7108388,0.2964321, 0.10908581, 9.621848
22:11:25,413,0.28368315,1.5257407, -1.7108388,0.27488428, 0.0947206, 9.485378
22:11:26,414,0.28015888,1.5259304, -1.7073145,0.27488428, 0.0947206, 9.485378
22:11:26,415,0.28015888,1.5259304, -1.7073145,0.28206688, 0.13781624, 9.506926
22:11:26,416,0.28045806,1.5263456, -1.7079812,0.28206688, 0.13781624, 9.506926
22:11:26,417,0.28045806,1.5263456, -1.7079812,0.3179799, 0.106691614, 9.566781
22:11:26,418,0.28176698,1.5269017, -1.7100484,0.3179799, 0.106691614, 9.566781
22:11:26,419,0.28176698,1.5269017, -1.7100484,0.27009588, 0.09711481, 9.557204
22:11:26,420,0.27853495,1.527065, -1.7067963,0.27009588, 0.09711481, 9.557204
22:11:26,421,0.27853495,1.527065, -1.7067963,0.28924948, 0.0923264, 9.482984
22:11:26,422,0.27546963,1.5272701, -1.703731,0.28924948, 0.0923264, 9.482984
22:11:26,423,0.27546963,1.5272701, -1.703731,0.24854806, 0.11387422, 9.542839
22:11:26,424,0.27353913,1.5273963, -1.7018006,0.24854806, 0.11387422, 9.542839
22:11:26,425,0.27353913,1.5273963, -1.7018006,0.2916437, 0.0923264, 9.50932
22:11:26,426,0.2702292,1.5275587, -1.6984906,0.2916437, 0.0923264, 9.50932
22:11:26,427,0.2702292,1.5275587, -1.6984906,0.3060089, 0.16415246, 9.573964
22:11:26,428,0.26650023,1.5277452, -1.6947616,0.3060089, 0.16415246, 9.573964
22:11:26,429,0.26650023,1.5277452, -1.6947616,0.32995093, 0.10190321, 9.502137
22:11:26,430,0.17303313,1.5121342, -1.6012007,0.32995093, 0.10190321, 9.502137
22:11:26,431,0.17303313,1.5121342, -1.6012007,1.0194811, -0.048931498, 9.437494
22:11:26,432,0.15779617,1.5072519, -1.5953039,1.0194811, -0.048931498, 9.437494
22:11:26,433,0.15779617,1.5072519, -1.5953039,0.6842928, 0.20245968, 9.439888
22:11:26,434,0.0889391,1.5071552, -1.5239135,0.6842928, 0.20245968, 9.439888
22:11:26,435,0.0889391,1.5071552, -1.5239135,0.92850137, 0.42272624, 9.597906
22:11:26,436,0.054171003,1.504767, -1.4885134,0.92850137, 0.42272624, 9.597906
22:11:26,437,0.054171003,1.504767, -1.4885134,0.4688146, 0.18091187, 9.324966
22:11:26,438,0.028798288,1.5031278, -1.4513832,0.4688146, 0.18091187, 9.324966
22:11:26,439,0.028798288,1.5031278, -1.4513832,-1.0443208, 0.3748422, 9.971401
22:11:26,440,0.019008279,1.5116563, -1.440791,-1.0443208, 0.3748422, 9.971401
22:11:26,441,0.019008279,1.5116563, -1.440791,0.4712088, -1.0904093, 9.301024
22:11:26,442,0.12635602,1.5106711, -1.5493046,0.4712088, -1.0904093, 9.301024
22:11:27,443,0.12635602,1.5106711, -1.5493046,0.77048403, 0.0851438, 8.84852
22:11:27,444,0.11443632,1.5069036, -1.5164974,0.77048403, 0.0851438, 8.84852
22:11:27,445,0.11443632,1.5069036, -1.5164974,-0.77377605, -0.20694882, 9.413552
22:11:27,446,0.15412754,1.5172713, -1.5312444,-0.77377605, -0.20694882, 9.413552
22:11:27,447,0.15412754,1.5172713, -1.5312444,0.10729016, 0.2599205, 9.38961
22:11:27,448,0.13589963,1.5190189, -1.4965951,0.10729016, 0.2599205, 9.38961
22:11:27,449,0.13589963,1.5190189, -1.4965951,-0.31648353, -0.10878654, 8.71684
22:11:27,450,0.18015529,1.5257316, -1.5171515,-0.31648353, -0.10878654, 8.71684
22:11:27,451,0.18015529,1.5257316, -1.5171515,0.6795044, -0.22849663, 10.689662
22:11:27,452,0.21676075,1.5327519, -1.5312469,0.6795044, -0.22849663, 10.689662
22:11:27,453,0.21676075,1.5327519, -1.5312469,-0.74504566, 0.8273463, 9.322573
22:11:27,454,0.07762305,1.5364393, -1.3687274,-0.74504566, 0.8273463, 9.322573
22:11:27,455,0.07762305,1.5364393, -1.3687274,0.27727848, 0.44187984, 9.406369
22:11:27,456,0.085668325,1.5368425, -1.3744836,0.27727848, 0.44187984, 9.406369
22:11:27,457,0.085668325,1.5368425, -1.3744836,0.088136554, 0.07556699, 9.983372
22:11:27,458,0.09300403,1.5395927, -1.3726262,0.088136554, 0.07556699, 9.983372
22:11:27,459,0.09300403,1.5395927, -1.3726262,-4.4891282E-4, 0.33414078, 9.456648
22:11:27,460,0.15527515,1.5425467, -1.4323275,-4.4891282E-4, 0.33414078, 9.456648
22:11:27,461,0.15527515,1.5425467, -1.4323275,0.7249942, 0.17133506, 9.612271
22:11:27,462,0.114838496,1.5403744, -1.3921044,0.7249942, 0.17133506, 9.612271
22:11:27,463,0.114838496,1.5403744, -1.3921044,0.09053075, 0.26949733, 9.837326
22:11:27,464,0.056072034,1.5405453, -1.3318546,0.09053075, 0.26949733, 9.837326
22:11:27,465,0.056072034,1.5405453, -1.3318546,0.16475101, 0.21203649, 9.588329
22:11:27,466,0.015546737,1.5418444, -1.2921168,0.16475101, 0.21203649, 9.588329
22:11:27,467,0.015546737,1.5418444, -1.2921168,0.25573066, 0.2287959, 9.530869
22:11:27,468,0.03437244,1.5405887, -1.3116382,0.25573066, 0.2287959, 9.530869
22:11:27,469,0.03437244,1.5405887, -1.3116382,0.24854806, 0.24316111, 9.564387
22:11:27,470,0.06756901,1.5409461, -1.3454697,0.24854806, 0.24316111, 9.564387
22:11:28,471,0.06756901,1.5409461, -1.3454697,0.25812486, 0.2240075, 9.516502
22:11:28,472,0.064687,1.5409381, -1.3425878,0.25812486, 0.2240075, 9.516502
22:11:28,473,0.064687,1.5409381, -1.3425878,0.27488428, 0.22161329, 9.49256
22:11:28,474,0.058143906,1.5409421, -1.3360447,0.27488428, 0.22161329, 9.49256
22:11:28,475,0.058143906,1.5409421, -1.3360447,0.2605191, 0.21203649, 9.482984
22:11:28,476,0.033930648,1.5399579, -1.3124601,0.2605191, 0.21203649, 9.482984
22:11:28,477,0.033930648,1.5399579, -1.3124601,0.1719336, 0.27428573, 9.547627
22:11:28,478,0.06448115,1.541328, -1.34356,0.1719336, 0.27428573, 9.547627
22:11:28,479,0.06448115,1.541328, -1.34356,0.24615386, 0.19288288, 9.485378
22:11:28,480,0.06156225,1.5413219, -1.3406411,0.24615386, 0.19288288, 9.485378
22:11:28,481,0.06156225,1.5413219, -1.3406411,0.27009588, 0.19048867, 9.619453
22:11:28,482,0.06680729,1.541225, -1.3461914,0.27009588, 0.19048867, 9.619453
22:11:28,483,0.06680729,1.541225, -1.3461914,0.23657705, 0.2335843, 9.444676
22:11:28,484,0.05941071,1.5412512, -1.3387948,0.23657705, 0.2335843, 9.444676
22:11:28,485,0.05941071,1.5412512, -1.3387948,0.25094226, 0.20006548, 9.564387
22:11:28,486,0.061679926,1.5414293, -1.3413693,0.25094226, 0.20006548, 9.564387
22:11:28,487,0.061679926,1.5414293, -1.3413693,0.24136546, 0.2335843, 9.478195
22:11:28,488,0.057955388,1.5414414, -1.3376447,0.24136546, 0.2335843, 9.478195
22:11:28,489,0.057955388,1.5414414, -1.3376447,0.23897126, 0.20006548, 9.523685
22:11:28,490,0.051298916,1.5414455, -1.3309882,0.23897126, 0.20006548, 9.523685
22:11:28,491,0.051298916,1.5414455, -1.3309882,-0.03875614, 0.60707974, 9.593118
22:11:28,492,-0.06674219,1.5398055, -1.2137955,-0.03875614, 0.60707974, 9.593118
22:11:28,493,-0.06674219,1.5398055, -1.2137955,0.84949267, 0.5161001, 9.676914
22:11:28,494,-0.045813538,1.5483536, -1.245205,0.84949267, 0.5161001, 9.676914
22:11:28,495,-0.045813538,1.5483536, -1.245205,-0.065092355, 0.38441902, 10.459818
22:11:28,496,-0.044699766,1.5505043, -1.254077,-0.065092355, 0.38441902, 10.459818
22:11:28,497,-0.044699766,1.5505043, -1.254077,-0.15607202, -0.029777884, 9.461436
22:11:28,498,0.123060696,1.5568781, -1.432232,-0.15607202, -0.029777884, 9.461436
22:11:28,499,0.123060696,1.5568781, -1.432232,-0.405069, -0.022595279, 9.38961
22:11:29,500,0.4022377,1.5618193, -1.7238369,-0.405069, -0.022595279, 9.38961
22:11:29,501,0.4022377,1.5618193, -1.7238369,0.7800608, 0.32695818, 10.182091
22:11:29,502,0.29737523,1.5578085, -1.6343172,0.7800608, 0.32695818, 10.182091
22:11:29,503,0.29737523,1.5578085, -1.6343172,0.34671032, -0.12075755, 10.129418
22:11:29,504,0.4557777,1.5558776, -1.8024285,0.34671032, -0.12075755, 10.129418
22:11:29,505,0.4557777,1.5558776, -1.8024285,-0.21113867, 0.13781624, 9.006537
22:11:29,506,0.6695739,1.5593867, -2.0352612,-0.21113867, 0.13781624, 9.006537
22:11:29,507,0.6695739,1.5593867, -2.0352612,-0.29732993, -0.01062427, 9.672126
22:11:29,508,0.62802917,1.5586332, -2.0114334,-0.29732993, -0.01062427, 9.672126
22:11:29,509,0.62802917,1.5586332, -2.0114334,-0.6804022, -0.4894646, 11.192444
22:11:29,510,1.0763441,1.5603752, -2.4841626,-0.6804022, -0.4894646, 11.192444
22:11:29,511,1.0763441,1.5603752, -2.4841626,0.93328977, 0.0037409402, 8.6091
22:11:29,512,0.8481774,1.5573974, -2.266082,0.93328977, 0.0037409402, 8.6091
22:11:29,513,0.8481774,1.5573974, -2.266082,2.5134628, 0.60707974, 9.375245
22:11:29,514,0.44052586,1.5509169, -1.8699173,2.5134628, 0.60707974, 9.375245
22:11:29,515,0.44052586,1.5509169, -1.8699173,1.6300025, -0.38411975, 10.009708
22:11:29,516,0.37995228,1.534492, -1.8268265,1.6300025, -0.38411975, 10.009708
22:11:29,517,0.37995228,1.534492, -1.8268265,1.1703157, 0.14978725, 9.7655
22:11:29,518,0.29203472,1.5213952, -1.7640569,1.1703157, 0.14978725, 9.7655
22:11:29,519,0.29203472,1.5213952, -1.7640569,3.277213, -0.17582418, 9.583541
22:11:29,520,0.2563135,1.5068598, -1.7354907,3.277213, -0.17582418, 9.583541
22:11:29,521,0.2563135,1.5