Time,Record No,Azimuth,Pitch,Roll,Accel-X,Accel-Y,Accel-Z
22:15:31,0,-0.6306645,-0.09275786, -1.5854362,-1.2382512, 3.3580174, 7.8621097
22:15:31,1,-0.6306645,-0.09275786, -1.5854362,-1.2382512, 3.3580174, 7.8621097
22:15:31,2,-0.6306645,-0.09275786, -1.5854362,-1.2382512, 3.3580174, 7.8621097
22:15:31,3,-0.6306645,-0.09275786, -1.5854362,-1.2382512, 3.3580174, 7.8621097
22:15:31,4,-0.6306645,-0.09275786, -1.5854362,-1.2382512, 3.3580174, 7.8621097
22:15:31,5,-0.6306645,-0.09275786, -1.5854362,-1.2382512, 3.3580174, 7.8621097
22:15:31,6,-2.1928403,1.1077911, 0.14377157,-1.2382512, 3.3580174, 7.8621097
22:15:31,7,-2.1928403,1.1077911, 0.14377157,-1.4058453, 3.8727708, 7.950695
22:15:31,8,-2.5953138,1.1010189, 0.19662309,-1.4058453, 3.8727708, 7.950695
22:15:31,9,-2.5953138,1.1010189, 0.19662309,-2.6316767, 4.4258313, 7.301866
22:15:31,10,-2.603832,1.084418, 0.29510272,-2.6316767, 4.4258313, 7.301866
22:15:31,11,-2.603832,1.084418, 0.29510272,-3.3068414, 4.4617443, 8.824578
22:15:31,12,-2.732899,1.0666062, 0.4968126,-3.3068414, 4.4617443, 8.824578
22:15:31,13,-2.732899,1.0666062, 0.4968126,-3.5127428, 4.447379, 7.2444053
22:15:31,14,-2.7744286,1.0769436, 0.56412846,-3.5127428, 4.447379, 7.2444053
22:15:31,15,-2.7744286,1.0769436, 0.56412846,-2.6532245, 4.1504984, 7.8238025
22:15:31,16,-2.7821395,1.1105307, 0.5911538,-2.6532245, 4.1504984, 7.8238025
22:15:31,17,-2.7821395,1.1105307, 0.5911538,3.3059437, 5.2925324, 7.570017
22:15:32,18,-2.8116457,1.2849224, 0.7140663,3.3059437, 5.2925324, 7.570017
22:15:32,19,-2.8116457,1.2849224, 0.7140663,0.38262334, 0.80579853, 11.781418
22:15:32,20,-1.8070418,1.3364905, -0.22609137,0.38262334, 0.80579853, 11.781418
22:15:32,21,-1.8070418,1.3364905, -0.22609137,-1.4680946, 0.3532944, 13.167661
22:15:32,22,-0.81068635,1.3496605, -1.3988186,-1.4680946, 0.3532944, 13.167661
22:15:32,23,-0.81068635,1.3496605, -1.3988186,0.51430446, -0.21413141, 6.0449104
22:15:32,24,0.35916987,1.3459002, -2.6051412,0.51430446, -0.21413141, 6.0449104
22:15:32,25,0.35916987,1.3459002, -2.6051412,0.28206688, -0.22370823, 11.2666645
22:15:32,26,0.7086057,1.3466179, -2.9531195,0.28206688, -0.22370823, 11.2666645
22:15:32,27,0.7086057,1.3466179, -2.9531195,0.34192193, 0.15696985, 10.419117
22:15:32,28,0.5691839,1.399301, -2.4136724,0.34192193, 0.15696985, 10.419117
22:15:32,29,0.5691839,1.399301, -2.4136724,-0.6061819, -3.2116718, 9.437494
22:15:32,30,-0.40060705,1.4602336, -1.1557736,-0.6061819, -3.2116718, 9.437494
22:15:32,31,-0.40060705,1.4602336, -1.1557736,-1.9948189, 2.2016182, 9.38961
22:15:32,32,-0.17140688,1.4495285, -1.3024318,-1.9948189, 2.2016182, 9.38961
22:15:32,33,-0.17140688,1.4495285, -1.3024318,2.2524948, 1.8520646, 10.976966
22:15:32,34,-0.8713463,1.5038884, -0.3754142,2.2524948, 1.8520646, 10.976966
22:15:32,35,-0.8713463,1.5038884, -0.3754142,1.8526632, 0.30301616, 10.81416
22:15:32,36,-0.77417845,1.4598076, -0.3782004,1.8526632, 0.30301616, 10.81416
22:15:32,37,-0.77417845,1.4598076, -0.3782004,-0.060303956, 2.4745572, 11.80536
22:15:32,38,-0.9487407,1.3809059, -0.17260432,-0.060303956, 2.4745572, 11.80536
22:15:32,39,-0.9487407,1.3809059, -0.17260432,1.8167502, 1.3013983, 10.759093
22:15:32,40,-0.87304693,1.3794827, -0.27431065,1.8167502, 1.3013983, 10.759093
22:15:32,41,-0.87304693,1.3794827, -0.27431065,0.8207623, 0.8393173, 9.157372
22:15:32,42,-0.8646244,1.3937457, -0.33230197,0.8207623, 0.8393173, 9.157372
22:15:32,43,-0.8646244,1.3937457, -0.33230197,0.75372463, 1.0595839, 10.167726
22:15:32,44,-0.688216,1.4073484, -0.5291672,0.75372463, 1.0595839, 10.167726
22:15:32,45,-0.688216,1.4073484, -0.5291672,0.9069535, 0.6549638, 8.750359
22:15:32,46,-0.24184278,1.411346, -0.97880405,0.9069535, 0.6549638, 8.750359
22:15:33,47,-0.24184278,1.411346, -0.97880405,1.1344028, 0.3556886, 8.673744
22:15:33,48,0.010055184,1.4162616, -1.2273645,1.1344028, 0.3556886, 8.673744
22:15:33,49,0.010055184,1.4162616, -1.2273645,0.94286656, -0.50622404, 7.536498
22:15:33,50,0.4282159,1.4367962, -1.632225,0.94286656, -0.50622404, 7.536498
22:15:33,51,0.4282159,1.4367962, -1.632225,0.734571, -0.51819503, 9.693674
22:15:33,52,0.63726205,1.4688095, -1.8275056,0.734571, -0.51819503, 9.693674
22:15:33,53,0.63726205,1.4688095, -1.8275056,0.5861305, -0.12315175, 9.526079
22:15:33,54,0.61294067,1.4891554, -1.7959687,0.5861305, -0.12315175, 9.526079
22:15:33,55,0.61294067,1.4891554, -1.7959687,0.5717653, -0.111180745, 9.3560915
22:15:33,56,0.5887331,1.49119, -1.7707695,0.5717653, -0.111180745, 9.3560915
22:15:33,57,0.5887331,1.49119, -1.7707695,0.5909189, -0.38411975, 9.64579
22:15:33,58,0.59060746,1.4989206, -1.7712033,0.5909189, -0.38411975, 9.64579
22:15:33,59,0.59060746,1.4989206, -1.7712033,0.5765537, -0.07047931, 9.396792
22:15:33,60,0.36541092,1.4976919, -1.545973,0.5765537, -0.07047931, 9.396792
22:15:33,61,0.36541092,1.4976919, -1.545973,0.62204355, 0.07556699, 8.757541
22:15:33,62,0.19067025,1.488729, -1.3759178,0.62204355, 0.07556699, 8.757541
22:15:33,63,0.19067025,1.488729, -1.3759178,0.51430446, 0.4921581, 9.099912
22:15:33,64,0.09881457,1.4857067, -1.2865279,0.51430446, 0.4921581, 9.099912
22:15:33,65,0.09881457,1.4857067, -1.2865279,0.8686463, 0.087538, 9.85648
22:15:33,66,0.29706255,1.4758688, -1.4929388,0.8686463, 0.087538, 9.85648
22:15:33,67,0.29706255,1.4758688, -1.4929388,1.0218753, -0.7647978, 8.898799
22:15:33,68,0.30452454,1.4591279, -1.5124397,1.0218753, -0.7647978, 8.898799
22:15:33,69,0.30452454,1.4591279, -1.5124397,0.76090723, -0.16385318, 9.293842
22:15:33,70,0.18859313,1.4842353, -1.3931757,0.76090723, -0.16385318, 9.293842
22:15:33,71,0.18859313,1.4842353, -1.3931757,0.95483756, -0.197372, 9.605088
22:15:33,72,0.25375926,1.4960471, -1.4540149,0.95483756, -0.197372, 9.605088
22:15:33,73,0.25375926,1.4960471, -1.4540149,0.35868135, 1.2319664, 11.666496
22:15:33,74,0.22352351,1.522191, -1.4121102,0.35868135, 1.2319664, 11.666496
22:15:34,75,0.22352351,1.522191, -1.4121102,8.185327, 0.89438397, 13.878738
22:15:34,76,0.15337285,1.4861616, -1.3408911,8.185327, 0.89438397, 13.878738
22:15:34,77,0.15337285,1.4861616, -1.3408911,3.7057753, 0.025288755, 9.849297
22:15:34,78,0.053967066,1.479081, -1.246749,3.7057753, 0.025288755, 9.849297
22:15:34,79,0.053967066,1.479081, -1.246749,0.5813421, 0.10908581, 9.576358
22:15:34,80,0.10082149,1.4701453, -1.2977431,0.5813421, 0.10908581, 9.576358
22:15:34,81,0.10082149,1.4701453, -1.2977431,0.49275663, 0.49934068, 9.4351
22:15:34,82,0.20641956,1.4602287, -1.4081198,0.49275663, 0.49934068, 9.4351
22:15:34,83,0.20641956,1.4602287, -1.4081198,0.66992754, 0.30780455, 9.909152
22:15:34,84,0.22587137,1.4507948, -1.426637,0.66992754, 0.30780455, 9.909152
22:15:34,85,0.22587137,1.4507948, -1.426637,0.35628715, 0.027682956, 9.38961
22:15:34,86,0.19775896,1.4457372, -1.4017006,0.35628715, 0.027682956, 9.38961
22:15:34,87,0.19775896,1.4457372, -1.4017006,0.8854057, 0.3676596, 9.844508
22:15:34,88,0.16191603,1.4464133, -1.366171,0.8854057, 0.3676596, 9.844508
22:15:34,89,0.16191603,1.4464133, -1.366171,0.65556234, 0.087538, 9.983372
22:15:34,90,0.1589827,1.4617144, -1.3639115,0.65556234, 0.087538, 9.983372
22:15:34,91,0.1589827,1.4617144, -1.3639115,1.2134113, -0.31229368, 10.237158
22:15:34,92,0.2701723,1.4755417, -1.4789892,1.2134113, -0.31229368, 10.237158
22:15:34,93,0.2701723,1.4755417, -1.4789892,0.8997709, 0.45624506, 8.527698
22:15:34,94,0.2886021,1.47186, -1.4990749,0.8997709, 0.45624506, 8.527698
22:15:34,95,0.2886021,1.47186, -1.4990749,-2.6987143, 0.32456398, 9.131037
22:15:34,96,0.20055158,1.4843506, -1.4092009,-2.6987143, 0.32456398, 9.131037
22:15:34,97,0.20055158,1.4843506, -1.4092009,8.510938, 1.9598037, 15.5020075
22:15:34,98,0.29905704,1.4858063, -1.4987754,8.510938, 1.9598037, 15.5020075
22:15:34,99,0.29905704,1.4858063, -1.4987754,-5.9165215, 0.6142624, 5.0369515
22:15:34,100,0.28780362,1.5073956, -1.4889691,-5.9165215, 0.6142624, 5.0369515
22:15:34,101,0.28780362,1.5073956, -1.4889691,-8.418462, -0.21413141, 4.9268184
22:15:34,102,-1.6670983,1.5157987, 0.46676573,-8.418462, -0.21413141, 4.9268184
22:15:35,103,-1.6670983,1.5157987, 0.46676573,1.3810055, 0.43709144, 9.198074
22:15:35,104,-1.654378,1.4927698, 0.4562981,1.3810055, 0.43709144, 9.198074
22:15:35,105,-1.654378,1.4927698, 0.4562981,0.3060089, 0.8656536, 8.96823
22:15:35,106,-1.530023,1.4924982, 0.31677023,0.3060089, 0.8656536, 8.96823
22:15:35,107,-1.530023,1.4924982, 0.31677023,0.8399159, 0.21203649, 8.980202
22:15:35,108,-0.82021666,1.5131412, -0.41836575,0.8399159, 0.21203649, 8.980202
22:15:35,109,-0.82021666,1.5131412, -0.41836575,0.76808983, 0.33414078, 8.235605
22:15:35,110,-0.57041407,1.524777, -0.6686086,0.76808983, 0.33414078, 8.235605
22:15:35,111,-0.57041407,1.524777, -0.6686086,0.5574001, 0.16415246, 8.973019
22:15:35,112,-0.7838512,1.5337476, -0.44949096,0.5574001, 0.16415246, 8.973019
22:15:35,113,-0.7838512,1.5337476, -0.44949096,0.104895964, 0.40357262, 9.432706
22:15:35,114,-1.5196134,1.5371653, 0.30339497,0.104895964, 0.40357262, 9.432706
22:15:35,115,-1.5196134,1.5371653, 0.30339497,0.1551742, 0.11148002, 9.712828
22:15:35,116,-1.9832153,1.5363042, 0.77018005,0.1551742, 0.11148002, 9.712828
22:15:35,117,-1.9832153,1.5363042, 0.77018005,0.20545243, 0.17372926, 10.079141
22:15:35,118,-2.588948,1.5423973, 1.3751273,0.20545243, 0.17372926, 10.079141
22:15:35,119,-2.588948,1.5423973, 1.3751273,0.0019452889, -0.06569091, 9.6026945
22:15:35,120,-2.7687464,1.5380309, 1.5566013,0.0019452889, -0.06569091, 9.6026945
22:15:35,121,-2.7687464,1.5380309, 1.5566013,0.03067571, 0.008529344, 9.911546
22:15:35,122,-2.9811583,1.5388098, 1.769013,0.03067571, 0.008529344, 9.911546
22:15:35,123,-2.9811583,1.5388098, 1.769013,0.1743278, -0.21652561, 9.497349
22:15:35,124,-2.9698153,1.5494759, 1.7506709,0.1743278, -0.21652561, 9.497349
22:15:35,125,-2.9698153,1.5494759, 1.7506709,0.1455974, 0.039653964, 9.07597
22:15:35,126,-2.3969026,1.5528024, 1.1754055,0.1455974, 0.039653964, 9.07597
22:15:35,127,-2.3969026,1.5528024, 1.1754055,-0.13691841, 0.14499883, 7.5748053
22:15:35,128,-2.3851035,1.5427372, 1.1683447,-0.13691841, 0.14499883, 7.5748053
22:15:35,129,-2.3851035,1.5427372, 1.1683447,-0.20395605, 0.15457565, 8.4965725
22:15:35,130,-2.3513007,1.5166345, 1.1494949,-0.20395605, 0.15457565, 8.4965725
22:15:35,131,-2.3513007,1.5166345, 1.1494949,-0.17283143, 0.42751464, 9.281871
22:15:35,132,-1.9114075,1.5280803, 0.70695543,-0.17283143, 0.42751464, 9.281871
22:15:36,133,-1.9114075,1.5280803, 0.70695543,0.62204355, -0.10639234, 9.724798
22:15:36,134,-1.9010122,1.5238572, 0.69952214,0.62204355, -0.10639234, 9.724798
22:15:36,135,-1.9010122,1.5238572, 0.69952214,-0.13452421, 0.12823942, 9.423129
22:15:36,136,-1.9153346,1.5312973, 0.7138129,-0.13452421, 0.12823942, 9.423129
22:15:36,137,-1.9153346,1.5312973, 0.7138129,-0.21113867, 0.2503437, 8.628254
22:15:36,138,-2.2790527,1.55064, 1.0688069,-0.21113867, 0.2503437, 8.628254
22:15:36,139,-2.2790527,1.55064, 1.0688069,-0.43140522, 0.6405986, 11.228357
22:15:36,140,-2.4719932,1.5411203, 1.2623632,-0.43140522, 0.6405986, 11.228357
22:15:36,141,-2.4719932,1.5411203, 1.2623632,-0.35718498, 0.6597522, 8.000973
22:15:36,142,-3.0854254,1.5501145, 1.8759325,-0.35718498, 0.6597522, 8.000973
22:15:36,143,-3.0854254,1.5501145, 1.8759325,-1.3459903, 0.14978725, 14.216321
22:15:36,144,2.8477674,1.5483482, 2.2231822,-1.3459903, 0.14978725, 14.216321
22:15:36,145,2.8477674,1.5483482, 2.2231822,-1.9565117, 0.28386253, 12.490102
22:15:36,146,-3.0665429,1.5210092, 1.8577782,-1.9565117, 0.28386253, 12.490102
22:15:36,147,-3.0665429,1.5210092, 1.8577782,0.7848492, -0.4511574, 5.6211367
22:15:36,148,-2.720203,1.5164784, 1.5132146,0.7848492, -0.4511574, 5.6211367
22:15:36,149,-2.720203,1.5164784, 1.5132146,-1.9660885, -0.5804443, 7.9195704
22:15:36,150,-2.6615791,1.5045874, 1.453908,-1.9660885, -0.5804443, 7.9195704
22:15:36,151,-2.6615791,1.5045874, 1.453908,-0.5056255, -0.03696049, 8.577976
22:15:36,152,-2.6019557,1.5032725, 1.3904976,-0.5056255, -0.03696049, 8.577976
22:15:36,153,-2.6019557,1.5032725, 1.3904976,-4.547038, 1.1649288, 12.138154
22:15:36,154,-2.5552726,1.4967843, 1.3344662,-4.547038, 1.1649288, 12.138154
22:15:36,155,-2.5552726,1.4967843, 1.3344662,-0.22310968, 1.2726679, 10.158149
22:15:36,156,-2.0826514,1.4755461, 0.8695544,-0.22310968, 1.2726679, 10.158149
22:15:36,157,-2.0826514,1.4755461, 0.8695544,0.17672202, 0.15936404, 7.488614
22:15:36,158,-1.9286339,1.4630197, 0.7125576,0.17672202, 0.15936404, 7.488614
22:15:36,159,-1.9286339,1.4630197, 0.7125576,-0.3978864, 0.6717232, 10.960206
22:15:36,160,-1.8736343,1.467411, 0.65415514,-0.3978864, 0.6717232, 10.960206
22:15:37,161,-1.8736343,1.467411, 0.65415514,-0.49844286, -0.25243863, 15.25301
22:15:37,162,-2.0864942,1.4937099, 0.8655328,-0.49844286, -0.25243863, 15.25301
22:15:37,163,-2.0864942,1.4937099, 0.8655328,0.49515083, -0.041748893, 9.605088
22:15:37,164,-2.316816,1.5100956, 1.0920726,0.49515083, -0.041748893, 9.605088
22:15:37,165,-2.316816,1.5100956, 1.0920726,-1.046715, 0.59271455, 11.42947
22:15:37,166,-2.3503454,1.5049207, 1.1264195,-1.046715, 0.59271455, 11.42947
22:15:37,167,-2.3503454,1.5049207, 1.1264195,-0.76180506, 0.15696985, 9.3800335
22:15:37,168,-2.8102763,1.5070016, 1.5861653,-0.76180506, 0.15696985, 9.3800335
22:15:37,169,-2.8102763,1.5070016, 1.5861653,-0.33803135, 0.32456398, 11.0679455
22:15:37,170,3.0818508,1.5028402, 1.9783642,-0.33803135, 0.32456398, 11.0679455
22:15:37,171,3.0818508,1.5028402, 1.9783642,-0.25902268, -0.12794015, 9.906757
22:15:37,172,3.1306436,1.5159626, 1.9271581,-0.25902268, -0.12794015, 9.906757
22:15:37,173,3.1306436,1.5159626, 1.9271581,-0.11058219, -0.11836334, 9.353697
22:15:37,174,3.1254122,1.5249316, 1.9294741,-0.11058219, -0.11836334, 9.353697
22:15:37,175,3.1254122,1.5249316, 1.9294741,-0.036361936, -0.15427637, 9.411158
22:15:37,176,3.0345013,1.5350413, 2.0163248,-0.036361936, -0.15427637, 9.411158
22:15:37,177,3.0345013,1.5350413, 2.0163248,0.0043394906, -0.43918636, 11.16132
22:15:37,178,2.8216538,1.5371228, 2.2274547,0.0043394906, -0.43918636, 11.16132
22:15:37,179,2.8216538,1.5371228, 2.2274547,-0.026785132, -0.13512276, 9.583541
22:15:37,180,2.7111638,1.5427139, 2.3351274,-0.026785132, -0.13512276, 9.583541
22:15:37,181,2.7111638,1.5427139, 2.3351274,-0.010025719, -0.06808511, 9.664944
22:15:37,182,2.6595685,1.5443945, 2.38591,-0.010025719, -0.06808511, 9.664944
22:15:37,183,2.6595685,1.5443945, 2.38591,-0.0052373162, -0.10399814, 9.437494
22:15:37,184,2.4870603,1.5504282, 2.5559986,-0.0052373162, -0.10399814, 9.437494
22:15:37,185,2.4870603,1.5504282, 2.5559986,0.08574235, -0.115969144, 9.473407
22:15:37,186,2.247603,1.5538393, 2.7943137,0.08574235, -0.115969144, 9.473407
22:15:37,187,2.247603,1.5538393, 2.7943137,0.03546411, -0.01062427, 9.341726
22:15:37,188,2.2976675,1.5616614, 2.7422516,0.03546411, -0.01062427, 9.341726
22:15:38,189,2.2976675,1.5616614, 2.7422516,0.04504092, -0.115969144, 10.12463
22:15:38,190,2.8959978,1.5657455, 2.1417112,0.04504092, -0.115969144, 10.12463
22:15:38,191,2.8959978,1.5657455, 2.1417112,-0.13213001, -0.17103578, 10.459818
22:15:38,192,1.0631555,1.5619464, -2.3134604,-0.13213001, -0.17103578, 10.459818
22:15:38,193,1.0631555,1.5619464, -2.3134604,-0.45774144, 0.18330607, 9.545234
22:15:38,194,0.95611966,1.5570331, -2.207645,-0.45774144, 0.18330607, 9.545234
22:15:38,195,0.95611966,1.5570331, -2.207645,0.09771336, -0.93718034, 8.372074
22:15:38,196,0.6414863,1.5427947, -1.895897,0.09771336, -0.93718034, 8.372074
22:15:38,197,0.6414863,1.5427947, -1.895897,-1.9277812, 0.3820248, 13.680019
22:15:38,198,0.58149856,1.5448247, -1.8370515,-1.9277812, 0.3820248, 13.680019
22:15:38,199,0.58149856,1.5448247, -1.8370515,2.9444191, 0.17612346, 20.235344
22:15:38,200,0.8304301,1.5206976, -2.0852733,2.9444191, 0.17612346, 20.235344
22:15:38,201,0.8304301,1.5206976, -2.0852733,2.6188078, 0.98536366, 10.3592615
22:15:38,202,0.6344535,1.5145602, -1.8883536,2.6188078, 0.98536366, 10.3592615
22:15:38,203,0.6344535,1.5145602, -1.8883536,-3.122488, 0.17372926, 13.124565
22:15:38,204,1.1383232,1.5312037, -2.3911066,-3.122488, 0.17372926, 13.124565
22:15:38,205,1.1383232,1.5312037, -2.3911066,1.9292777, -0.72888476, 12.97373
22:15:38,206,1.3397168,1.523752, -2.5874658,1.9292777, -0.72888476, 12.97373
22:15:38,207,1.3397168,1.523752, -2.5874658,-1.5375264, -1.3561656, 9.3560915
22:15:38,208,1.8649006,1.5405118, -3.101855,-1.5375264, -1.3561656, 9.3560915
22:15:38,209,1.8649006,1.5405118, -3.101855,3.0665236, -0.15188217, 13.356802
22:15:38,210,1.7545617,1.5264208, -2.9908981,3.0665236, -0.15188217, 13.356802
22:15:38,211,1.7545617,1.5264208, -2.9908981,-0.37633857, -1.0114006, 10.194062
22:15:38,212,2.039202,1.4968617, 3.0052736,-0.37633857, -1.0114006, 10.194062
22:15:38,213,2.039202,1.4968617, 3.0052736,-2.3563433, -0.8677485, 5.7647886
22:15:38,214,2.1520088,1.4825569, 2.891821,-2.3563433, -0.8677485, 5.7647886
22:15:38,215,2.1520088,1.4825569, 2.891821,-2.318036, 0.025288755, 7.464672
22:15:38,216,2.4193728,1.4844624, 2.6262395,-2.318036, 0.025288755, 7.464672
22:15:38,217,2.4193728,1.4844624, 2.6262395,-0.8527847, -0.5349544, 8.10153
22:15:39,218,2.375307,1.5044183, 2.6706767,-0.8527847, -0.5349544, 8.10153
22:15:39,219,2.375307,1.5044183, 2.6706767,-2.543091, -1.0760441, 10.184485
22:15:39,220,2.17106,1.4974288, 2.8682466,-2.543091, -1.0760441, 10.184485
22:15:39,221,2.17106,1.4974288, 2.8682466,-0.4026748, -0.08245032, 9.2699
22:15:39,222,2.3038428,1.5076057, 2.741076,-0.4026748, -0.08245032, 9.2699
22:15:39,223,2.3038428,1.5076057, 2.741076,0.93328977, -0.13751696, 11.07034
22:15:39,224,1.6872005,1.499974, -2.911757,0.93328977, -0.13751696, 11.07034
22:15:39,225,1.6872005,1.499974, -2.911757,-1.4226047, 0.18570027, 9.485378
22:15:39,226,2.2031639,1.4811738, 2.8723018,-1.4226047, 0.18570027, 9.485378
22:15:39,227,2.2031639,1.4811738, 2.8723018,-0.89588034, -0.5349544, 8.13026
22:15:39,228,2.305388,1.4983015, 2.7632778,-0.89588034, -0.5349544, 8.13026
22:15:39,229,2.305388,1.4983015, 2.7632778,0.33473933, 0.70763624, 7.953089
22:15:39,230,2.389633,1.518828, 2.6784103,0.33473933, 0.70763624, 7.953089
22:15:39,231,2.389633,1.518828, 2.6784103,-0.43379942, 0.058807578, 8.264336
22:15:39,232,3.034147,1.5235459, 2.0432894,-0.43379942, 0.058807578, 8.264336
22:15:39,233,3.034147,1.5235459, 2.0432894,-0.2662053, -0.08963293, 9.2699
22:15:39,234,2.922534,1.5267255, 2.1514904,-0.2662053, -0.08963293, 9.2699
22:15:39,235,2.922534,1.5267255, 2.1514904,-0.29972413, -0.032172084, 9.442283
22:15:39,236,2.9795213,1.517864, 2.0965831,-0.29972413, -0.032172084, 9.442283
22:15:39,237,2.9795213,1.517864, 2.0965831,-0.46252984, 0.0923264, 9.624242
22:15:39,238,3.0326154,1.5140146, 2.0447326,-0.46252984, 0.0923264, 9.624242
22:15:39,239,3.0326154,1.5140146, 2.0447326,-0.41464582, 0.07796119, 9.528474
22:15:39,240,3.0462258,1.5179462, 2.02799,-0.41464582, 0.07796119, 9.528474
22:15:39,241,3.0462258,1.5179462, 2.02799,-0.32606035, -0.07766192, 9.396792
22:15:39,242,3.0016246,1.5229963, 2.0691895,-0.32606035, -0.07766192, 9.396792
22:15:39,243,3.0016246,1.5229963, 2.0691895,-0.4098574, -0.017806875, 9.487772
22:15:39,244,2.9665117,1.5147748, 2.1055014,-0.4098574, -0.017806875, 9.487772
22:15:39,245,2.9665117,1.5147748, 2.1055014,-0.5247791, -0.013018472, 9.6266365
22:15:39,246,3.0047185,1.5069269, 2.0697293,-0.5247791, -0.013018472, 9.6266365
22:15:40,247,3.0047185,1.5069269, 2.0697293,-0.66603696, -0.027383681, 9.693674
22:15:40,248,3.0523365,1.4971633, 2.0234022,-0.66603696, -0.027383681, 9.693674
22:15:40,249,3.0523365,1.4971633, 2.0234022,-0.6277298, -0.034566287, 9.418341
22:15:40,250,3.1281555,1.4989545, 1.9455513,-0.6277298, -0.034566287, 9.418341
22:15:40,251,3.1281555,1.4989545, 1.9455513,-0.618153, -0.111180745, 9.516502
22:15:40,252,-3.0935838,1.4953773, 1.8817143,-0.618153, -0.111180745, 9.516502
22:15:40,253,-3.0935838,1.4953773, 1.8817143,-0.73786306, -0.07047931, 9.550022
22:15:40,254,-3.0893922,1.4892102, 1.8782043,-0.73786306, -0.07047931, 9.550022
22:15:40,255,-3.0893922,1.4892102, 1.8782043,-0.86475575, 0.042048167, 11.348067
22:15:40,256,-3.1389017,1.4778514, 1.9283748,-0.86475575, 0.042048167, 11.348067
22:15:40,257,-3.1389017,1.4778514, 1.9283748,-0.89588034, 0.010923545, 9.949853
22:15:40,258,-3.1321812,1.4628692, 1.924778,-0.89588034, 0.010923545, 9.949853
22:15:40,259,-3.1321812,1.4628692, 1.924778,-1.070657, -0.37454292, 9.169344
22:15:40,260,-3.0304916,1.4518857, 1.8254697,-1.070657, -0.37454292, 9.169344
22:15:40,261,-3.0304916,1.4518857, 1.8254697,-2.6412535, 0.71242464, 8.826973
22:15:40,262,-2.9202938,1.4488939, 1.7116565,-2.6412535, 0.71242464, 8.826973
22:15:40,263,-2.9202938,1.4488939, 1.7116565,-2.1217117, -0.69776016, 6.8996406
22:15:40,264,-2.8748422,1.441924, 1.6583508,-2.1217117, -0.69776016, 6.8996406
22:15:40,265,-2.8748422,1.441924, 1.6583508,-4.520702, -1.1526585, 4.701763
22:15:40,266,-3.0355163,1.4330866, 1.8165603,-4.520702, -1.1526585, 4.701763
22:15:40,267,-3.0355163,1.4330866, 1.8165603,-3.4480994, -0.51580083, 13.557916
22:15:40,268,-3.0088737,1.4125415, 1.7911761,-3.4480994, -0.51580083, 13.557916
22:15:40,269,-3.0088737,1.4125415, 1.7911761,-3.1775546, 0.8680478, 9.901969
22:15:40,270,-2.8818388,1.4034903, 1.6632596,-3.1775546, 0.8680478, 9.901969
22:15:40,271,-2.8818388,1.4034903, 1.6632596,-1.1831845, 1.1529578, 6.1789856
22:15:40,272,-2.6910841,1.4173844, 1.4729446,-1.1831845, 1.1529578, 6.1789856
22:15:40,273,-2.6910841,1.4173844, 1.4729446,0.8040029, 1.1888708, 10.127025
22:15:40,274,-2.578751,1.4270918, 1.3567728,0.8040029, 1.1888708, 10.127025
22:15:41,275,-2.578751,1.4270918, 1.3567728,-2.210297, 0.71960723, 8.582765
22:15:41,276,-2.7326922,1.4095517, 1.5237292,-2.210297, 0.71960723, 8.582765
22:15:41,277,-2.7326922,1.4095517, 1.5237292,-0.630124, -0.70015436, 7.96506
22:15:41,278,-2.846326,1.3966488, 1.6477627,-0.630124, -0.70015436, 7.96506
22:15:41,279,-2.846326,1.3966488, 1.6477627,10.270677, 0.17851767, 2.3434746
22:15:41,280,-2.8934264,1.4491575, 1.6917775,10.270677, 0.17851767, 2.3434746
22:15:41,281,-2.8934264,1.4491575, 1.6917775,0.674716, 1.7802386, 9.530869
22:15:41,282,-2.3891993,1.467418, 1.1712798,0.674716, 1.7802386, 9.530869
22:15:41,283,-2.3891993,1.467418, 1.1712798,-1.7649755, 0.46821606, 9.119065
22:15:41,284,-2.3020287,1.4216588, 1.0806018,-1.7649755, 0.46821606, 9.119065
22:15:41,285,-2.3020287,1.4216588, 1.0806018,0.84709847, -0.39848495, 5.3505917
22:15:41,286,-2.3551345,1.4340019, 1.1301894,0.84709847, -0.39848495, 5.3505917
22:15:41,287,-2.3551345,1.4340019, 1.1301894,0.66513914, 0.104297414, 10.253917
22:15:41,288,-2.554288,1.4855455, 1.316665,0.66513914, 0.104297414, 10.253917
22:15:41,289,-2.554288,1.4855455, 1.316665,-0.45055884, 0.34132338, 4.2660184
22:15:41,290,-2.8326788,1.4918387, 1.5949882,-0.45055884, 0.34132338, 4.2660184
22:15:41,291,-2.8326788,1.4918387, 1.5949882,-0.9341876, 1.1002853, 8.630649
22:15:41,292,-2.565665,1.4698486, 1.3187437,-0.9341876, 1.1002853, 8.630649
22:15:41,293,-2.565665,1.4698486, 1.3187437,-2.1791725, 1.0787375, 9.91394
22:15:41,294,-2.562966,1.4613804, 1.3109306,-2.1791725, 1.0787375, 9.91394
22:15:41,295,-2.562966,1.4613804, 1.3109306,-1.7386394, -1.5931916, 7.4718547
22:15:41,296,-2.6688604,1.4699215, 1.4111264,-1.7386394, -1.5931916, 7.4718547
22:15:41,297,-2.6688604,1.4699215, 1.4111264,-6.330718, 0.18091187, 9.554811
22:15:41,298,-2.6190937,1.4515941, 1.354214,-6.330718, 0.18091187, 9.554811
22:15:41,299,-2.6190937,1.4515941, 1.354214,-1.3172598, 0.2599205, 9.459042
22:15:41,300,-2.331731,1.4598765, 1.0660149,-1.3172598, 0.2599205, 9.459042
22:15:41,301,-2.331731,1.4598765, 1.0660149,-1.211915, 0.7698855, 8.850915
22:15:41,302,-2.211429,1.4532323, 0.9457475,-1.211915, 0.7698855, 8.850915
22:15:42,303,-2.211429,1.4532323, 0.9457475,-1.0969933, 0.6310218, 9.183709
22:15:42,304,-2.174255,1.4650875, 0.9136089,-1.0969933, 0.6310218, 9.183709
22:15:42,305,-2.174255,1.4650875, 0.9136089,-1.0826281, 0.7363667, 9.377639
22:15:42,306,-2.1783977,1.4657108, 0.9184481,-1.0826281, 0.7363667, 9.377639
22:15:42,307,-2.1783977,1.4657108, 0.9184481,-1.0515034, 0.70045364, 9.717616
22:15:42,308,-2.1413987,1.4653867, 0.87788576,-1.0515034, 0.70045364, 9.717616
22:15:42,309,-2.1413987,1.4653867, 0.87788576,-1.0036194, 0.71003044, 9.346515
22:15:42,310,-2.1240659,1.4655285, 0.85900027,-1.0036194, 0.71003044, 9.346515
22:15:42,311,-2.1240659,1.4655285, 0.85900027,-0.950947, 0.60947394, 9.451859
22:15:42,312,-2.124291,1.4667168, 0.8569632,-0.950947, 0.60947394, 9.451859
22:15:42,313,-2.124291,1.4667168, 0.8569632,-0.938976, 0.6166566, 9.24117
22:15:42,314,-2.1395488,1.4667971, 0.8710166,-0.938976, 0.6166566, 9.24117
22:15:42,315,-2.1395488,1.4667971, 0.8710166,-0.950947, 0.7579145, 9.461436
22:15:42,316,-2.1131103,1.4688774, 0.8436912,-0.950947, 0.7579145, 9.461436
22:15:42,317,-2.1131103,1.4688774, 0.8436912,-0.9461586, 0.6477812, 9.863662
22:15:42,318,-2.1046665,1.4726865, 0.8336874,-0.9461586, 0.6477812, 9.863662
22:15:42,319,-2.1046665,1.4726865, 0.8336874,-0.29493573, 0.90396076, 10.404752
22:15:42,320,-2.0639272,1.4857101, 0.79255223,-0.29493573, 0.90396076, 10.404752
22:15:42,321,-2.0639272,1.4857101, 0.79255223,-1.532738, 0.69805944, 8.7671175
22:15:42,322,-2.2239041,1.5077267, 0.9525349,-1.532738, 0.69805944, 8.7671175
22:15:42,323,-2.2239041,1.5077267, 0.9525349,-0.5223849, 0.45863926, 10.866833
22:15:42,324,-1.9806653,1.5168574, 0.69732046,-0.5223849, 0.45863926, 10.866833
22:15:42,325,-1.9806653,1.5168574, 0.69732046,-2.7992706, -0.020201078, 8.539668
22:15:42,326,-1.8865734,1.5232139, 0.5952913,-2.7992706, -0.020201078, 8.539668
22:15:42,327,-1.8865734,1.5232139, 0.5952913,0.8614637, 0.6717232, 8.352921
22:15:42,328,-1.488837,1.5419165, 0.19859341,0.8614637, 0.6717232, 8.352921
22:15:42,329,-1.488837,1.5419165, 0.19859341,-0.8096891, -0.35778353, 11.508479
22:15:42,330,0.059178215,1.5662029, -1.342213,-0.8096891, -0.35778353, 11.508479
22:15:42,331,0.059178215,1.5662029, -1.342213,0.042646717, -0.25962123, 9.949853
22:15:42,332,2.028896,1.5281278, 2.976664,0.042646717, -0.25962123, 9.949853
22:15:43,333,2.028896,1.5281278, 2.976664,-0.16325463, -0.28835166, 8.503756
22:15:43,334,2.0286977,1.5090127, 2.976761,-0.16325463, -0.28835166, 8.503756
22:15:43,335,2.0286977,1.5090127, 2.976761,-0.29972413, -0.6402993, 6.013786
22:15:43,336,1.8921033,1.506692, 3.106144,-0.29972413, -0.6402993, 6.013786
22:15:43,337,1.8921033,1.506692, 3.106144,-3.6827312, -0.25483283, 7.158214
22:15:43,338,1.7905796,1.5222856, -3.0776734,-3.6827312, -0.25483283, 7.158214
22:15:43,339,1.7905796,1.5222856, -3.0776734,-2.1265001, -0.4679168, 7.5077677
22:15:43,340,2.2553089,1.5140703, 2.745527,-2.1265001, -0.4679168, 7.5077677
22:15:43,341,2.2553089,1.5140703, 2.745527,1.9292777, -0.29792848, 11.278635
22:15:43,342,2.139985,1.5031084, 2.8636487,1.9292777, -0.29792848, 11.278635
22:15:43,343,2.139985,1.5031084, 2.8636487,1.6874633, -0.93718034, 8.724022
22:15:43,344,1.9937923,1.483214, 3.0093434,1.6874633, -0.93718034, 8.724022
22:15:43,345,1.9937923,1.483214, 3.0093434,0.22460605, -0.4487632, 7.5748053
22:15:43,346,2.148328,1.4749694, 2.8549068,0.22460605, -0.4487632, 7.5748053
22:15:43,347,2.148328,1.4749694, 2.8549068,-2.86152, 0.21682489, 9.487772
22:15:43,348,2.4584901,1.516418, 2.544953,-2.86152, 0.21682489, 9.487772
22:15:43,349,2.4584901,1.516418, 2.544953,-0.47689506, -0.6379051, 8.74557
22:15:43,350,3.034282,1.5385795, 1.9713141,-0.47689506, -0.6379051, 8.74557
22:15:43,351,3.034282,1.5385795, 1.9713141,1.505504, -0.96830493, 9.863662
22:15:43,352,2.6279297,1.5334032, 2.3824592,1.505504, -0.96830493, 9.863662
22:15:43,353,2.6279297,1.5334032, 2.3824592,-0.20156185, -1.0233716, 8.182933
22:15:43,354,2.1872597,1.4694319, 2.8339994,-0.20156185, -1.0233716, 8.182933
22:15:43,355,2.1872597,1.4694319, 2.8339994,-0.29972413, -1.0736499, 9.157372
22:15:43,356,2.1238277,1.4626889, 2.8976374,-0.29972413, -1.0736499, 9.157372
22:15:43,357,2.1238277,1.4626889, 2.8976374,-0.017208325, -0.7576152, 7.462278
22:15:43,358,2.1904018,1.4679832, 2.8333395,-0.017208325, -0.7576152, 7.462278
22:15:43,359,2.1904018,1.4679832, 2.8333395,-0.31408933, -0.7456442, 8.922741
22:15:43,360,2.4151464,1.4804019, 2.6167688,-0.31408933, -0.7456442, 8.922741
22:15:44,361,2.4151464,1.4804019, 2.6167688,-0.5199907, -0.61156887, 6.7392287
22:15:44,362,2.532072,1.4654548, 2.508305,-0.5199907, -0.61156887, 6.7392287
22:15:44,363,2.532072,1.4654548, 2.508305,-0.32606035, -0.7815572, 9.018509
22:15:44,364,2.5016704,1.4595431, 2.5400956,-0.32606035, -0.7815572, 9.018509
22:15:44,365,2.5016704,1.4595431, 2.5400956,-0.33803135, -0.41524437, 9.035268
22:15:44,366,2.5069418,1.464903, 2.5328918,-0.33803135, -0.41524437, 9.035268
22:15:44,367,2.5069418,1.464903, 2.5328918,-0.3859154, -0.5756559, 9.609877
22:15:44,368,2.57629,1.4700636, 2.4616613,-0.3859154, -0.5756559, 9.609877
22:15:44,369,2.57629,1.4700636, 2.4616613,-0.47928926, -0.3338415, 9.808596
22:15:44,370,2.6523128,1.4694525, 2.385816,-0.47928926, -0.3338415, 9.808596
22:15:44,371,2.6523128,1.4694525, 2.385816,-0.405069, -0.4750994, 9.593118
22:15:44,372,2.61585,1.4784235, 2.417894,-0.405069, -0.4750994, 9.593118
22:15:44,373,2.61585,1.4784235, 2.417894,-0.31887773, -0.6187515, 9.320178
22:15:44,374,2.611969,1.481213, 2.4201596,-0.31887773, -0.6187515, 9.320178
22:15:44,375,2.611969,1.481213, 2.4201596,-0.46492404, -0.44397476, 9.73677
22:15:44,376,2.6741047,1.4814258, 2.3578465,-0.46492404, -0.44397476, 9.73677
22:15:44,377,2.6741047,1.4814258, 2.3578465,-0.48647186, -0.3506009, 9.614665
22:15:44,378,2.7020533,1.4823279, 2.3300009,-0.48647186, -0.3506009, 9.614665
22:15:44,379,2.7020533,1.4823279, 2.3300009,-0.55590373, -0.30032268, 9.590723
22:15:44,380,2.7312548,1.4807439, 2.3014915,-0.55590373, -0.30032268, 9.590723
22:15:44,381,2.7312548,1.4807439, 2.3014915,-0.66843116, 0.21443069, 6.358551
22:15:44,382,2.8163111,1.4757851, 2.218132,-0.66843116, 0.21443069, 6.358551
22:15:44,383,2.8163111,1.4757851, 2.218132,-0.55590373, -0.09202713, 9.219622
22:15:44,384,2.907218,1.4698504, 2.1318274,-0.55590373, -0.09202713, 9.219622
22:15:44,385,2.907218,1.4698504, 2.1318274,-0.91024554, -0.39609075, 9.24117
22:15:44,386,3.1165068,1.4704103, 1.9264992,-0.91024554, -0.39609075, 9.24117
22:15:44,387,3.1165068,1.4704103, 1.9264992,-0.8503905, -0.0537199, 8.601918
22:15:44,388,-2.9063783,1.4784809, 1.6594974,-0.8503905, -0.0537199, 8.601918
22:15:45,389,-2.9063783,1.4784809, 1.6594974,-1.7625813, 1.0811317, 13.593828
22:15:45,390,-2.7356586,1.4783247, 1.4833759,-1.7625813, 1.0811317, 13.593828
22:15:45,391,-2.7356586,1.4783247, 1.4833759,-1.5279496, -0.5612907, 7.428759
22:15:45,392,-2.8391626,1.4699107, 1.5828955,-1.5279496, -0.5612907, 7.428759
22:15:45,393,-2.8391626,1.4699107, 1.5828955,-1.8224365, -0.51101243, 4.677821
22:15:45,394,-2.979477,1.4469386, 1.7315173,-1.8224365, -0.51101243, 4.677821
22:15:45,395,-2.979477,1.4469386, 1.7315173,-1.1616367, -0.25243863, 8.475025
22:15:45,396,-2.9712925,1.43396, 1.7253139,-1.1616367, -0.25243863, 8.475025
22:15:45,397,-2.9712925,1.43396, 1.7253139,-3.1416416, 0.69566524, 15.571439
22:15:45,398,-2.9135098,1.4306445, 1.6653327,-3.1416416, 0.69566524, 15.571439
22:15:45,399,-2.9135098,1.4306445, 1.6653327,-0.21592706, -0.73127896, 7.0815997
22:15:45,400,-3.0325017,1.4418567, 1.7770609,-0.21592706, -0.73127896, 7.0815997
22:15:45,401,-3.0325017,1.4418567, 1.7770609,-3.3451488, -0.4798878, 4.483891
22:15:45,402,3.1313062,1.4579366, 1.8957136,-3.3451488, -0.4798878, 4.483891
22:15:45,403,3.1313062,1.4579366, 1.8957136,-2.0498855, 1.3277345, 12.894721
22:15:45,404,-2.7177026,1.4310967, 1.4721074,-2.0498855, 1.3277345, 12.894721
22:15:45,405,-2.7177026,1.4310967, 1.4721074,2.5661354, 1.9358617, 9.107095
22:15:45,406,-2.4731197,1.4355916, 1.2310916,2.5661354, 1.9358617, 9.107095
22:15:45,407,-2.4731197,1.4355916, 1.2310916,-2.957288, 0.645387, 10.428694
22:15:45,408,-2.563197,1.4710588, 1.3129191,-2.957288, 0.645387, 10.428694
22:15:45,409,-2.563197,1.4710588, 1.3129191,3.1503205, 0.24555531, 6.5931826
22:15:45,410,3.0805106,1.4950355, 1.9532326,3.1503205, 0.24555531, 6.5931826
22:15:45,411,3.0805106,1.4950355, 1.9532326,1.3426982, 1.0452187, 11.091887
22:15:45,412,2.9839218,1.4692936, 2.0638905,1.3426982, 1.0452187, 11.091887
22:15:45,413,2.9839218,1.4692936, 2.0638905,-4.582951, 1.380407, 11.0440035
22:15:45,414,3.0750613,1.4560211, 1.9673941,-4.582951, 1.380407, 11.0440035
22:15:45,415,3.0750613,1.4560211, 1.9673941,-0.9724948, -0.8988731, 6.9690723
22:15:45,416,-3.114671,1.4681286, 1.8625987,-0.9724948, -0.8988731, 6.9690723
22:15:45,417,-3.114671,1.4681286, 1.8625987,-0.37155017, -0.29314008, 13.842825
22:15:46,418,-3.1114976,1.4976934, 1.853117,-0.37155017, -0.29314008, 13.842825
22:15:46,419,-3.1114976,1.4976934, 1.853117,-0.90785134, 0.15218145, 10.100688
22:15:46,420,2.904136,1.5066473, 2.1169693,-0.90785134, 0.