Time,Record No,Azimuth,Pitch,Roll,Accel-X,Accel-Y,Accel-Z
08:35:18,0,-2.109244,1.4591781, 2.8865013,-1.0515034, -2.1294928, 8.992172
08:35:18,1,-2.109244,1.4591781, 2.8865013,-1.0515034, -2.1294928, 8.992172
08:35:18,2,-2.109244,1.4591781, 2.8865013,-1.0515034, -2.1294928, 8.992172
08:35:18,3,-2.109244,1.4591781, 2.8865013,-1.0515034, -2.1294928, 8.992172
08:35:18,4,-2.109244,1.4591781, 2.8865013,-1.0515034, -2.1294928, 8.992172
08:35:18,5,-2.109244,1.4591781, 2.8865013,-1.0515034, -2.1294928, 8.992172
08:35:18,6,-1.2135113,1.4405464, 2.261154,-1.0515034, -2.1294928, 8.992172
08:35:18,7,-1.2135113,1.4405464, 2.261154,0.11447277, -3.1757588, 9.090335
08:35:18,8,-1.3613728,1.435493, 2.4047337,0.11447277, -3.1757588, 9.090335
08:35:18,9,-1.3613728,1.435493, 2.4047337,0.25333646, -3.1566052, 8.994567
08:35:18,10,-1.4612631,1.4196259, 2.4969587,0.25333646, -3.1566052, 8.994567
08:35:18,11,-1.4612631,1.4196259, 2.4969587,-0.18001404, -3.3744776, 9.157372
08:35:18,12,-1.53054,1.4019805, 2.5598783,-0.18001404, -3.3744776, 9.157372
08:35:18,13,-1.53054,1.4019805, 2.5598783,-0.1297358, -2.9722517, 9.030479
08:35:18,14,-1.6101717,1.3819644, 2.6346886,-0.1297358, -2.9722517, 9.030479
08:35:19,15,-1.6101717,1.3819644, 2.6346886,-0.012419921, -3.1494226, 9.36088
08:35:19,16,-1.6536949,1.371941, 2.675926,-0.012419921, -3.1494226, 9.36088
08:35:19,17,-1.6536949,1.371941, 2.675926,-0.115370594, -2.8716953, 9.0616045
08:35:19,18,-1.7133137,1.3578485, 2.7337172,-0.115370594, -2.8716953, 9.0616045
08:35:19,19,-1.7133137,1.3578485, 2.7337172,-0.30451253, -3.295469, 8.882039
08:35:19,20,-1.751506,1.3392891, 2.770767,-0.30451253, -3.295469, 8.882039
08:35:19,21,-1.751506,1.3392891, 2.770767,-0.06748656, -3.4822168, 9.128642
08:35:19,22,-1.8056618,1.3197267, 2.8225954,-0.06748656, -3.4822168, 9.128642
08:35:19,23,-1.8056618,1.3197267, 2.8225954,-0.014814123, -3.2499793, 9.008932
08:35:19,24,-1.8332089,1.3124146, 2.8488615,-0.014814123, -3.2499793, 9.008932
08:35:19,25,-1.8332089,1.3124146, 2.8488615,-0.17283143, -3.3146226, 8.973019
08:35:19,26,-1.8737855,1.299303, 2.8869233,-0.17283143, -3.3146226, 8.973019
08:35:19,27,-1.8737855,1.299303, 2.8869233,-0.20635025, -3.403208, 8.996961
08:35:19,28,-1.9000505,1.2869505, 2.912918,-0.20635025, -3.403208, 8.996961
08:35:19,29,-1.9000505,1.2869505, 2.912918,-0.14410101, -3.3625066, 8.903587
08:35:19,30,-1.9253898,1.277153, 2.938484,-0.14410101, -3.3625066, 8.903587
08:35:19,31,-1.9253898,1.277153, 2.938484,-0.20395605, -3.4247558, 8.934711
08:35:19,32,-1.9377098,1.2722385, 2.950324,-0.20395605, -3.4247558, 8.934711
08:35:19,33,-1.9377098,1.2722385, 2.950324,-0.19916765, -3.4606688, 8.913164
08:35:19,34,-1.9686289,1.2612437, 2.9790487,-0.19916765, -3.4606688, 8.913164
08:35:19,35,-1.9686289,1.2612437, 2.9790487,-0.06748656, -3.4917936, 8.934711
08:35:19,36,-2.0044255,1.2473247, 3.0125287,-0.06748656, -3.4917936, 8.934711
08:35:19,37,-2.0044255,1.2473247, 3.0125287,-0.065092355, -3.6258688, 8.915558
08:35:19,38,-2.0365486,1.2293752, 3.0419326,-0.065092355, -3.6258688, 8.915558
08:35:19,39,-2.0365486,1.2293752, 3.0419326,0.037858315, -3.6929064, 8.805425
08:35:19,40,-2.0495453,1.2207838, 3.0543778,0.037858315, -3.6929064, 8.805425
08:35:19,41,-2.0495453,1.2207838, 3.0543778,0.042646717, -3.8389528, 8.862885
08:35:19,42,-2.0708897,1.2049613, 3.0762634,0.042646717, -3.8389528, 8.862885
08:35:20,43,-2.0708897,1.2049613, 3.0762634,-0.079457566, -3.8437412, 8.704868
08:35:20,44,-2.0881965,1.1900889, 3.0912457,-0.079457566, -3.8437412, 8.704868
08:35:20,45,-2.0881965,1.1900889, 3.0912457,0.08334815, -3.9227498, 8.704868
08:35:20,46,-2.1090307,1.1767448, 3.1068175,0.08334815, -3.9227498, 8.704868
08:35:20,47,-2.1090307,1.1767448, 3.1068175,0.09531915, -4.028095, 8.7192335
08:35:20,48,-2.1184025,1.1710763, 3.113945,0.09531915, -4.028095, 8.7192335
08:35:20,49,-2.1184025,1.1710763, 3.113945,0.07855974, -4.078373, 8.707263
08:35:20,50,-2.1320643,1.1627381, 3.1253083,0.07855974, -4.078373, 8.707263
08:35:20,51,-2.1320643,1.1627381, 3.1253083,0.10010756, -3.937115, 8.779089
08:35:20,52,-2.1319077,1.1623427, 3.1263676,0.10010756, -3.937115, 8.779089
08:35:20,53,-2.1319077,1.1623427, 3.1263676,0.08095395, -4.092738, 8.652196
08:35:20,54,-2.1314943,1.1575607, 3.1286948,0.08095395, -4.092738, 8.652196
08:35:20,55,-2.1314943,1.1575607, 3.1286948,0.10968436, -4.054431, 8.582765
08:35:20,56,-2.1305544,1.1557671, 3.1289816,0.10968436, -4.054431, 8.582765
08:35:20,57,-2.1305544,1.1557671, 3.1289816,-0.021996727, -3.982605, 8.6952915
08:35:20,58,-2.1283932,1.1538556, 3.1286077,-0.021996727, -3.982605, 8.6952915
08:35:20,59,-2.1283932,1.1538556, 3.1286077,0.023493104, -4.044854, 8.664167
08:35:20,60,-2.127238,1.1528168, 3.1279633,0.023493104, -4.044854, 8.664167
08:35:20,61,-2.127238,1.1528168, 3.1279633,0.03067571, -4.0879498, 8.640225
08:35:20,62,-2.128569,1.151162, 3.1286643,0.03067571, -4.0879498, 8.640225
08:35:20,63,-2.128569,1.151162, 3.1286643,0.049829323, -3.9658456, 8.738387
08:35:20,64,-2.1306698,1.1508201, 3.1299856,0.049829323, -3.9658456, 8.738387
08:35:20,65,-2.1306698,1.1508201, 3.1299856,0.04504092, -4.032883, 8.798243
08:35:20,66,-2.1368897,1.1482077, 3.1339216,0.04504092, -4.032883, 8.798243
08:35:20,67,-2.1368897,1.1482077, 3.1339216,0.018704701, -4.0233064, 8.697686
08:35:20,68,-2.1419559,1.1461682, 3.136907,0.018704701, -4.0233064, 8.697686
08:35:20,69,-2.1419559,1.1461682, 3.136907,0.09053075, -3.9562688, 8.688109
08:35:20,70,-2.14218,1.1461163, 3.137146,0.09053075, -3.9562688, 8.688109
08:35:21,71,-2.14218,1.1461163, 3.137146,0.054617725, -4.066402, 8.690503
08:35:21,72,-2.1452115,1.1446352, 3.1393497,0.054617725, -4.066402, 8.690503
08:35:21,73,-2.1452115,1.1446352, 3.1393497,0.054617725, -4.0233064, 8.692898
08:35:21,74,-2.145371,1.1445678, 3.139524,0.054617725, -4.0233064, 8.692898
08:35:21,75,-2.145371,1.1445678, 3.139524,0.049829323, -3.9658456, 8.752752
08:35:21,76,-2.1477473,1.1435924, 3.141237,0.049829323, -3.9658456, 8.752752
08:35:21,77,-2.1477473,1.1435924, 3.141237,0.06419453, -4.0233064, 8.599524
08:35:21,78,-2.1532924,1.1410617, -3.1373072,0.06419453, -4.0233064, 8.599524
08:35:21,79,-2.1532924,1.1410617, -3.1373072,0.023493104, -4.0233064, 8.721628
08:35:21,80,-2.1578014,1.139612, -3.1339064,0.023493104, -4.0233064, 8.721628
08:35:21,81,-2.1578014,1.139612, -3.1339064,0.033069912, -4.080767, 8.692898
08:35:21,82,-2.1605701,1.1377635, -3.1318946,0.033069912, -4.080767, 8.692898
08:35:21,83,-2.1605701,1.1377635, -3.1318946,0.11686697, -4.0017586, 8.621072
08:35:21,84,-2.1649463,1.136305, -3.1278288,0.11686697, -4.0017586, 8.621072
08:35:21,85,-2.1649463,1.136305, -3.1278288,0.10250176, -4.0496426, 8.72881
08:35:21,86,-2.166387,1.1353384, -3.1260324,0.10250176, -4.0496426, 8.72881
08:35:21,87,-2.166387,1.1353384, -3.1260324,0.09053075, -4.020912, 8.67135
08:35:21,88,-2.1675336,1.1346905, -3.1245446,0.09053075, -4.020912, 8.67135
08:35:21,89,-2.1675336,1.1346905, -3.1245446,0.1455974, -4.0640078, 8.740782
08:35:21,90,-2.1686032,1.1336634, -3.1232164,0.1455974, -4.0640078, 8.740782
08:35:21,91,-2.1686032,1.1336634, -3.1232164,0.09531915, -4.052037, 8.704868
08:35:21,92,-2.1681929,1.133088, -3.123525,0.09531915, -4.052037, 8.704868
08:35:21,93,-2.1681929,1.133088, -3.123525,0.052223526, -4.052037, 8.72881
08:35:21,94,-2.1679747,1.132024, -3.1236792,0.052223526, -4.052037, 8.72881
08:35:21,95,-2.1679747,1.132024, -3.1236792,0.03546411, -4.0616136, 8.726417
08:35:21,96,-2.16795,1.1320518, -3.1237187,0.03546411, -4.0616136, 8.726417
08:35:21,97,-2.16795,1.1320518, -3.1237187,0.10968436, -4.078373, 8.678533
08:35:21,98,-2.1683934,1.131257, -3.123423,0.10968436, -4.078373, 8.678533
08:35:21,99,-2.1683934,1.131257, -3.123423,0.07855974, -4.018518, 8.690503
08:35:22,100,-2.1683667,1.1313546, -3.1234648,0.07855974, -4.018518, 8.690503
08:35:22,101,-2.1683667,1.1313546, -3.1234648,0.121655375, -4.0951324, 8.697686
08:35:22,102,-2.1679418,1.1306248, -3.1238701,0.121655375, -4.0951324, 8.697686
08:35:22,103,-2.1679418,1.1306248, -3.1238701,0.009127894, -4.068796, 8.731205
08:35:22,104,-2.167729,1.1306792, -3.124098,0.009127894, -4.068796, 8.731205
08:35:22,105,-2.167729,1.1306792, -3.124098,0.07377134, -4.0735846, 8.683321
08:35:22,106,-2.1690247,1.1299583, -3.123412,0.07377134, -4.0735846, 8.683321
08:35:22,107,-2.1690247,1.1299583, -3.123412,0.040252518, -4.092738, 8.697686
08:35:22,108,-2.168968,1.1300137, -3.1234834,0.040252518, -4.092738, 8.697686
08:35:22,109,-2.168968,1.1300137, -3.1234834,0.119261175, -4.090344, 8.697686
08:35:22,110,-2.173543,1.128831, -3.1203275,0.119261175, -4.090344, 8.697686
08:35:22,111,-2.173543,1.128831, -3.1203275,0.05940613, -4.054431, 8.7192335
08:35:22,112,-2.1753063,1.1283197, -3.1188967,0.05940613, -4.054431, 8.7192335
08:35:22,113,-2.1753063,1.1283197, -3.1188967,0.07377134, -4.0951324, 8.688109
08:35:22,114,-2.1767297,1.1270928, -3.1178567,0.07377134, -4.0951324, 8.688109
08:35:22,115,-2.1767297,1.1270928, -3.1178567,0.11686697, -4.032883, 8.690503
08:35:22,116,-2.1767979,1.1271771, -3.1178033,0.11686697, -4.032883, 8.690503
08:35:22,117,-2.1767979,1.1271771, -3.1178033,0.08095395, -4.0496426, 8.688109
08:35:22,118,-2.1781929,1.1262708, -3.117004,0.08095395, -4.0496426, 8.688109
08:35:22,119,-2.1781929,1.1262708, -3.117004,0.09531915, -4.066402, 8.71684
08:35:22,120,-2.1793249,1.1260072, -3.1161492,0.09531915, -4.066402, 8.71684
08:35:22,121,-2.1793249,1.1260072, -3.1161492,0.1455974, -4.04246, 8.7192335
08:35:22,122,-2.1793628,1.1260493, -3.116126,0.1455974, -4.04246, 8.7192335
08:35:22,123,-2.1793628,1.1260493, -3.116126,0.14080898, -4.040066, 8.637831
08:35:22,124,-2.1806614,1.1253935, -3.1154952,0.14080898, -4.040066, 8.637831
08:35:22,125,-2.1806614,1.1253935, -3.1154952,0.1599626, -4.0951324, 8.628254
08:35:22,126,-2.1826296,1.1248778, -3.1143072,0.1599626, -4.0951324, 8.628254
08:35:22,127,-2.1826296,1.1248778, -3.1143072,0.09292495, -3.970634, 8.712051
08:35:22,128,-2.1821756,1.1248487, -3.1156428,0.09292495, -3.970634, 8.712051
08:35:23,129,-2.1821756,1.1248487, -3.1156428,0.11207857, -3.9849992, 8.659379
08:35:23,130,-2.1822302,1.1249328, -3.115575,0.11207857, -3.9849992, 8.659379
08:35:23,131,-2.1822302,1.1249328, -3.115575,0.04504092, -4.004153, 8.738387
08:35:23,132,-2.1821132,1.1251146, -3.1157074,0.04504092, -4.004153, 8.738387
08:35:23,133,-2.1821132,1.1251146, -3.1157074,0.037858315, -3.8964136, 8.755147
08:35:23,134,-2.1827724,1.1292986, -3.1149917,0.037858315, -3.8964136, 8.755147
08:35:23,135,-2.1827724,1.1292986, -3.1149917,0.1695394, -3.9419034, 8.822185
08:35:23,136,-2.1844122,1.128223, -3.1128268,0.1695394, -3.9419034, 8.822185
08:35:23,137,-2.1844122,1.128223, -3.1128268,-0.18719664, -4.375254, 9.729587
08:35:23,138,-2.185249,1.1297475, -3.1116083,-0.18719664, -4.375254, 9.729587
08:35:23,139,-2.185249,1.1297475, -3.1116083,0.52866966, -4.4734163, 8.396016
08:35:23,140,-2.207187,1.1294186, -3.085722,0.52866966, -4.4734163, 8.396016
08:35:23,141,-2.207187,1.1294186, -3.085722,0.124049574, -3.4486978, 8.764724
08:35:23,142,-2.2036629,1.1218241, -3.0808015,0.124049574, -3.4486978, 8.764724
08:35:23,143,-2.2036629,1.1218241, -3.0808015,0.75372463, -4.528483, 8.125472
08:35:23,144,-2.2084122,1.1157404, -3.0684748,0.75372463, -4.528483, 8.125472
08:35:23,145,-2.2084122,1.1157404, -3.0684748,1.0577883, -3.2164602, 9.317784
08:35:23,146,-2.213293,1.1125739, -3.059019,1.0577883, -3.2164602, 9.317784
08:35:23,147,-2.213293,1.1125739, -3.059019,2.822315, -3.0129533, 10.632201
08:35:23,148,-2.2743738,1.1040132, -2.9919152,2.822315, -3.0129533, 10.632201
08:35:23,149,-2.2743738,1.1040132, -2.9919152,1.7856256, -2.761562, 9.545234
08:35:23,150,-2.3266141,1.1195066, -2.9365988,1.7856256, -2.761562, 9.545234
08:35:23,151,-2.3266141,1.1195066, -2.9365988,2.2836194, -3.0799909, 9.226805
08:35:23,152,-2.388248,1.1711863, -2.8833141,2.2836194, -3.0799909, 9.226805
08:35:23,153,-2.388248,1.1711863, -2.8833141,2.1543326, -1.9164088, 10.62023
08:35:23,154,-2.4379334,1.2089164, -2.8533452,2.1543326, -1.9164088, 10.62023
08:35:23,155,-2.4379334,1.2089164, -2.8533452,1.2589012, -3.3984196, 9.193286
08:35:23,156,-2.5217564,1.2022226, -2.8518348,1.2589012, -3.3984196, 9.193286
08:35:24,157,-2.5217564,1.2022226, -2.8518348,-2.069039, -5.457433, 7.4694605
08:35:24,158,-2.4629645,1.1628164, -3.032228,-2.069039, -5.457433, 7.4694605
08:35:24,159,-2.4629645,1.1628164, -3.032228,-2.4305637, -5.158158, 5.5205803
08:35:24,160,-2.3372562,1.1091057, 3.0024686,-2.4305637, -5.158158, 5.5205803
08:35:24,161,-2.3372562,1.1091057, 3.0024686,-4.132841, -4.7415667, 6.6147304
08:35:24,162,-2.2685537,1.0848683, 2.871347,-4.132841, -4.7415667, 6.6147304
08:35:24,163,-2.2685537,1.0848683, 2.871347,-4.130447, -3.532495, 8.034492
08:35:24,164,-2.145272,1.068477, 2.6416328,-4.130447, -3.532495, 8.034492
08:35:24,165,-2.145272,1.068477, 2.6416328,-3.491195, -4.0472484, 8.4439
08:35:24,166,-2.137129,1.0346692, 2.5679276,-3.491195, -4.0472484, 8.4439
08:35:24,167,-2.137129,1.0346692, 2.5679276,-2.9046156, -4.0855556, 8.376863
08:35:24,168,-2.1703746,1.0172772, 2.5833213,-2.9046156, -4.0855556, 8.376863
08:35:24,169,-2.1703746,1.0172772, 2.5833213,-3.1631894, -4.128651, 7.656208
08:35:24,170,-2.150825,1.0313313, 2.5712006,-3.1631894, -4.128651, 7.656208
08:35:24,171,-2.150825,1.0313313, 2.5712006,-4.717026, -4.0017586, 7.9339356
08:35:24,172,-2.1170106,1.0433956, 2.5640004,-4.717026, -4.0017586, 7.9339356
08:35:24,173,-2.1170106,1.0433956, 2.5640004,-6.718579, -6.5683427, 7.972243
08:35:24,174,-2.237776,1.0272415, 2.779166,-6.718579, -6.5683427, 7.972243
08:35:24,175,-2.237776,1.0272415, 2.779166,-8.387338, -8.114997, 6.940342
08:35:24,176,-2.4308662,1.1045638, -3.132652,-8.387338, -8.114997, 6.940342
08:35:24,177,-2.4308662,1.1045638, -3.132652,-0.18001404, -0.6498761, 5.443966
08:35:24,178,-2.558291,1.1396754, -2.9055939,-0.18001404, -0.6498761, 5.443966
08:35:24,179,-2.558291,1.1396754, -2.9055939,2.0777183, -1.8565538, 7.3976345
08:35:24,180,-2.6300094,1.0690114, -2.6574218,2.0777183, -1.8565538, 7.3976345
08:35:24,181,-2.6300094,1.0690114, -2.6574218,3.5070565, -0.16624738, 8.22124
08:35:24,182,-2.5720558,1.0659924, -2.6059074,3.5070565, -0.16624738, 8.22124
08:35:24,183,-2.5720558,1.0659924, -2.6059074,5.2380643, -1.1071687, 9.0376625
08:35:24,184,-2.442524,1.0312603, -2.7141726,5.2380643, -1.1071687, 9.0376625
08:35:25,185,-2.442524,1.0312603, -2.7141726,5.221305, -1.7464205, 8.810213
08:35:25,186,-2.4176674,1.0092365, -2.7514772,5.221305, -1.7464205, 8.810213
08:35:25,187,-2.4176674,1.0092365, -2.7514772,1.8718169, -4.4542627, 10.292224
08:35:25,188,-2.3877394,0.99312806, -2.8511908,1.8718169, -4.4542627, 10.292224
08:35:25,189,-2.3877394,0.99312806, -2.8511908,1.2253823, -5.7519197, 9.018509
08:35:25,190,-2.40925,0.9656986, -2.907877,1.2253823, -5.7519197, 9.018509
08:35:25,191,-2.40925,0.9656986, -2.907877,1.6204256, -6.4941225, 8.242787
08:35:25,192,-2.4242198,0.94562554, -2.9427717,1.6204256, -6.4941225, 8.242787
08:35:25,193,-2.4242198,0.94562554, -2.9427717,1.103278, -5.478981, 8.10153
08:35:25,194,-2.4216297,0.9680472, -2.9513113,1.103278, -5.478981, 8.10153
08:35:25,195,-2.4216297,0.9680472, -2.9513113,0.7776666, -5.6393924, 7.9339356
08:35:25,196,-2.3992605,0.9780697, -2.9630368,0.7776666, -5.6393924, 7.9339356
08:35:25,197,-2.3992605,0.9780697, -2.9630368,0.6818986, -5.4861636, 7.9171762
08:35:25,198,-2.370814,0.9831978, -2.9700897,0.6818986, -5.4861636, 7.9171762
08:35:25,199,-2.370814,0.9831978, -2.9700897,0.5789479, -5.5125, 7.8621097
08:35:25,200,-2.3531823,0.9817048, -2.9744105,0.5789479, -5.5125, 7.8621097
08:35:25,201,-2.3531823,0.9817048, -2.9744105,0.45205522, -5.3473, 7.8214083
08:35:25,202,-2.3497267,0.97856253, -2.9759974,0.45205522, -5.3473, 7.8214083
08:35:25,203,-2.3497267,0.97856253, -2.9759974,0.50951606, -5.220407, 8.05604
08:35:25,204,-2.344788,0.9752607, -2.980921,0.50951606, -5.220407, 8.05604
08:35:25,205,-2.344788,0.9752607, -2.980921,0.7010522, -5.0336595, 8.015338
08:35:25,206,-2.3401394,0.97112405, -2.9864504,0.7010522, -5.0336595, 8.015338
08:35:25,207,-2.3401394,0.97112405, -2.9864504,0.77048403, -5.0719666, 7.8812633
08:35:25,208,-2.3351483,0.9430591, -2.9957163,0.77048403, -5.0719666, 7.8812633
08:35:25,209,-2.3351483,0.9430591, -2.9957163,0.7010522, -6.144569, 7.809437
08:35:25,210,-2.329318,0.91770196, -3.0044098,0.7010522, -6.144569, 7.809437
08:35:25,211,-2.329318,0.91770196, -3.0044098,0.3131915, -6.3241343, 7.766341
08:35:25,212,-2.3213134,0.88760364, -3.0170498,0.3131915, -6.3241343, 7.766341
08:35:25,213,-2.3213134,0.88760364, -3.0170498,0.38501757, -6.1637225, 7.4790373
08:35:26,214,-2.3088844,0.8854079, -3.029689,0.38501757, -6.1637225, 7.4790373
08:35:26,215,-2.3088844,0.8854079, -3.029689,0.33473933, -6.278644, 7.718457
08:35:26,216,-2.3019633,0.877812, -3.0352077,0.33473933, -6.278644, 7.718457
08:35:26,217,-2.3019633,0.877812, -3.0352077,0.49036244, -6.331317, 7.4335475
08:35:26,218,-2.294077,0.86962694, -3.0409157,0.49036244, -6.331317, 7.4335475
08:35:26,219,-2.294077,0.86962694, -3.0409157,0.49754503, -6.451027, 7.4790373
08:35:26,220,-2.2943025,0.8614428, -3.0404985,0.49754503, -6.451027, 7.4790373
08:35:26,221,-2.2943025,0.8614428, -3.0404985,0.4568436, -6.3049808, 7.323414
08:35:26,222,-2.2977567,0.8574901, -3.0386748,0.4568436, -6.3049808, 7.323414
08:35:26,223,-2.2977567,0.8574901, -3.0386748,0.5837363, -6.2499137, 7.3210196
08:35:26,224,-2.3002868,0.855557, -3.0374198,0.5837363, -6.2499137, 7.3210196
08:35:26,225,-2.3002868,0.855557, -3.0374198,0.6052841, -6.108656, 7.2731357
08:35:26,226,-2.302706,0.85630846, -3.0363142,0.6052841, -6.108656, 7.2731357
08:35:26,227,-2.302706,0.85630846, -3.0363142,0.5693711, -6.2882214, 7.5149503
08:35:26,228,-2.3009615,0.8602564, -3.0381877,0.5693711, -6.2882214, 7.5149503
08:35:26,229,-2.3009615,0.8602564, -3.0381877,0.51430446, -6.146963, 7.4359417
08:35:26,230,-2.3008378,0.8638517, -3.0380464,0.51430446, -6.146963, 7.4359417
08:35:26,231,-2.3008378,0.8638517, -3.0380464,0.52866966, -6.087108, 7.23004
08:35:26,232,-2.3012333,0.8636441, -3.0379412,0.52866966, -6.087108, 7.23004
08:35:26,233,-2.3012333,0.8636441, -3.0379412,0.5909189, -6.3361053, 7.5029793
08:35:26,234,-2.3004289,0.86526585, -3.0392158,0.5909189, -6.3361053, 7.5029793
08:35:26,235,-2.3004289,0.86526585, -3.0392158,0.4712088, -6.0464067, 7.5891705
08:35:26,236,-2.2980826,0.88255215, -3.0417433,0.4712088, -6.0464067, 7.5891705
08:35:26,237,-2.2980826,0.88255215, -3.0417433,0.52388126, -6.015282, 7.4550953
08:35:26,238,-2.2986908,0.8871362, -3.0419016,0.52388126, -6.015282, 7.4550953
08:35:26,239,-2.2986908,0.8871362, -3.0419016,0.61486095, -6.0416183, 7.5628343
08:35:26,240,-2.2998135,0.8885618, -3.0412607,0.61486095, -6.0416183, 7.5628343
08:35:26,241,-2.2998135,0.8885618, -3.0412607,0.5645827, -5.967398, 7.5795937
08:35:26,242,-2.3006067,0.89074105, -3.0411103,0.5645827, -5.967398, 7.5795937
08:35:27,243,-2.3006067,0.89074105, -3.0411103,0.49036244, -5.8979664, 7.665785
08:35:27,244,-2.3016298,0.8908211, -3.041043,0.49036244, -5.8979664, 7.665785
08:35:27,245,-2.3016298,0.8908211, -3.041043,0.54542905, -6.0104938, 7.656208
08:35:27,246,-2.30159,0.8909837, -3.0410833,0.54542905, -6.0104938, 7.656208
08:35:27,247,-2.30159,0.8909837, -3.0410833,0.5574001, -5.919514, 7.617901
08:35:27,248,-2.3015738,0.8911162, -3.041114,0.5574001, -5.919514, 7.617901
08:35:27,249,-2.3015738,0.8911162, -3.041114,0.5621885, -5.91712, 7.644237
08:35:27,250,-2.3014748,0.8912972, -3.0412135,0.5621885, -5.91712, 7.644237
08:35:27,251,-2.3014748,0.8912972, -3.0412135,0.52148706, -5.967398, 7.658602
08:35:27,252,-2.3013473,0.8914666, -3.0413704,0.52148706, -5.967398, 7.658602
08:35:27,253,-2.3013473,0.8914666, -3.0413704,0.5765537, -5.950639, 7.6155066
08:35:27,254,-2.3013408,0.891671, -3.0413918,0.5765537, -5.950639, 7.6155066
08:35:27,255,-2.3013408,0.891671, -3.0413918,0.49993923, -5.9458504, 7.6250834
08:35:27,256,-2.3012702,0.89174986, -3.041506,0.49993923, -5.9458504, 7.6250834
08:35:27,257,-2.3012702,0.89174986, -3.041506,0.52627546, -5.8620534, 7.5676227
08:35:27,258,-2.3011544,0.8919611, -3.0416224,0.52627546, -5.8620534, 7.5676227
08:35:27,259,-2.3011544,0.8919611, -3.0416224,0.5574001, -5.9219084, 7.6274776
08:35:27,260,-2.3010175,0.89216065, -3.0418031,0.5574001, -5.9219084, 7.6274776
08:35:27,261,-2.3010175,0.89216065, -3.0418031,0.5933131, -5.8764186, 7.608324
08:35:27,262,-2.3009107,0.8923365, -3.0421853,0.5933131, -5.8764186, 7.608324
08:35:27,263,-2.3009107,0.8923365, -3.0421853,0.55021745, -5.895572, 7.5891705
08:35:27,264,-2.300911,0.8924388, -3.0421996,0.55021745, -5.895572, 7.5891705
08:35:27,265,-2.300911,0.8924388, -3.0421996,0.51430446, -5.895572, 7.6514196
08:35:27,266,-2.3008168,0.8926499, -3.042338,0.51430446, -5.895572, 7.6514196
08:35:27,267,-2.3008168,0.8926499, -3.042338,0.49275663, -5.941062, 7.620295
08:35:27,268,-2.300672,0.89284927, -3.0425117,0.49275663, -5.941062, 7.620295
08:35:27,269,-2.300672,0.89284927, -3.0425117,0.50233346, -5.895572, 7.570017
08:35:27,270,-2.3005443,0.89301854, -3.042669,0.50233346, -5.895572, 7.570017
08:35:28,271,-2.3005443,0.89301854, -3.042669,0.55021745, -5.883601, 7.730428
08:35:28,272,-2.3001666,0.89343554, -3.0430477,0.55021745, -5.883601, 7.730428
08:35:28,273,-2.3001666,0.89343554, -3.0430477,0.6004957, -5.931485, 7.6035357
08:35:28,274,-2.3001094,0.89362824, -3.0431051,0.6004957, -5.931485, 7.6035357
08:35:28,275,-2.3001094,0.89362824, -3.0431051,0.52148706, -5.914726, 7.5676227
08:35:28,276,-2.3002963,0.8934305, -3.0434678,0.52148706, -5.914726, 7.5676227
08:35:28,277,-2.3002963,0.8934305, -3.0434678,0.53824645, -5.881207, 7.60593
08:35:28,278,-2.300211,0.8936114, -3.0435824,0.53824645, -5.881207, 7.60593
08:35:28,279,-2.300211,0.8936114, -3.0435824,0.54064065, -6.0057054, 7.6609964
08:35:28,280,-2.3007748,0.89332163, -3.0437272,0.54064065, -6.0057054, 7.6609964
08:35:28,281,-2.3007748,0.89332163, -3.0437272,0.51430446, -5.8405056, 7.596353
08:35:28,282,-2.3007083,0.89354444, -3.0438085,0.51430446, -5.8405056, 7.596353
08:35:28,283,-2.3007083,0.89354444, -3.0438085,0.53345805, -5.9099374, 7.692121
08:35:28,284,-2.3008723,0.8937738, -3.0443249,0.53345805, -5.9099374, 7.692121
08:35:28,285,-2.3008723,0.8937738, -3.0443249,0.54064065, -5.893178, 7.596353
08:35:28,286,-2.3008368,0.8939665, -3.0444043,0.54064065, -5.893178, 7.596353
08:35:28,287,-2.3008368,0.8939665, -3.0444043,0.53824645, -5.881207, 7.620295
08:35:28,288,-2.3008368,0.8940686, -3.0444188,0.53824645, -5.881207, 7.620295
08:35:28,289,-2.3008368,0.8940686, -3.0444188,0.54542905, -5.857265, 7.72564
08:35:28,290,-2.3007748,0.89433324, -3.0444527,0.54542905, -5.857265, 7.72564
08:35:28,291,-2.3007748,0.89433324, -3.0444527,0.52627546, -5.883601, 7.641843
08:35:28,292,-2.300663,0.89457434, -3.044608,0.52627546, -5.883601, 7.641843
08:35:28,293,-2.300663,0.89457434, -3.044608,0.5645827, -5.914726, 7.6514196
08:35:28,294,-2.3006368,0.8947368, -3.0446637,0.5645827, -5.914726, 7.6514196
08:35:28,295,-2.3006368,0.8947368, -3.0446637,0.47839144, -5.845294, 7.558046
08:35:28,296,-2.3005342,0.89484555, -3.0447807,0.47839144, -5.845294, 7.558046
08:35:28,297,-2.3005342,0.89484555, -3.0447807,0.53585225, -5.8021984, 7.68015
08:35:28,298,-2.3011672,0.89692074, -3.0444553,0.53585225, -5.8021984, 7.68015
08:35:28,299,-2.3011672,0.89692074, -3.0444553,0.5550059, -5.87163, 7.6993036
08:35:29,300,-2.301841,0.8986585, -3.0440884,0.5550059, -5.87163, 7.6993036
08:35:29,301,-2.301841,0.8986585, -3.0440884,0.5885247, -5.795016, 7.629872
08:35:29,302,-2.3024528,0.90092945, -3.0435526,0.5885247, -5.795016, 7.629872
08:35:29,303,-2.3024528,0.90092945, -3.0435526,0.54782325, -5.8429, 7.6394486
08:35:29,304,-2.3024697,0.90100145, -3.0435505,0.54782325, -5.8429, 7.6394486
08:35:29,305,-2.3024697,0.90100145, -3.0435505,0.53345805, -5.8524766, 7.7208514
08:35:29,306,-2.3023956,0.90122384, -3.043625,0.53345805, -5.8524766, 7.7208514
08:35:29,307,-2.3023956,0.90122384, -3.043625,0.51909286, -5.833323, 7.6993036
08:35:29,308,-2.3023262,0.9014765, -3.0437381,0.51909286, -5.833323, 7.6993036
08:35:29,309,-2.3023262,0.9014765, -3.0437381,0.4664204, -5.845294, 7.8238025
08:35:29,310,-2.3022518,0.9018011, -3.0438273,0.4664204, -5.845294, 7.8238025
08:35:29,311,-2.3022518,0.9018011, -3.0438273,0.50472766, -5.938668, 7.8261967
08:35:29,312,-2.3030803,0.9032962, -3.0433338,0.50472766, -5.938668, 7.8261967
08:35:29,313,-2.3030803,0.9032962, -3.0433338,0.52148706, -5.914726, 7.9219646
08:35:29,314,-2.304727,0.91215765, -3.0410666,0.52148706, -5.914726, 7.9219646
08:35:29,315,-2.304727,0.91215765, -3.0410666,0.55021745, -5.8620534, 7.809437
08:35:29,316,-2.305653,0.9162663, -3.0383172,0.55021745, -5.8620534, 7.809437
08:35:29,317,-2.305653,0.9162663, -3.0383172,0.65077394, -5.5915084, 7.802254
08:35:29,318,-2.3061974,0.9234831, -3.0347788,0.65077394, -5.5915084, 7.802254
08:35:29,319,-2.3061974,0.9234831, -3.0347788,0.74893624, -5.902755, 8.089559
08:35:29,320,-2.307608,0.9238733, -3.0323186,0.74893624, -5.902755, 8.089559
08:35:29,321,-2.307608,0.9238733, -3.0323186,1.1679215, -5.433491, 8.601918
08:35:29,322,-2.31566,0.94903356, -3.0188274,1.1679215, -5.433491, 8.601918
08:35:29,323,-2.31566,0.94903356, -3.0188274,2.1160254, -4.590732, 8.269124
08:35:29,324,-2.3340473,0.9830029, -2.978048,2.1160254, -4.590732, 8.269124
08:35:29,325,-2.3340473,0.9830029, -2.978048,2.2022166, -5.0719666, 8.530091
08:35:29,326,-2.35595,0.9828608, -2.9077609,2.2022166, -5.0719666, 8.530091
08:35:29,327,-2.35595,0.9828608, -2.9077609,4.498256, -5.9937344, 9.260324
08:35:29,328,-2.372515,0.9803858, -2.8504388,4.498256, -5.9937344, 9.260324
08:35:30,329,-2.372515,0.9803858, -2.8504388,5.80549, -4.5739727, 9.0616045
08:35:30,330,-2.4318755,0.9924668, -2.682643,5.80549, -4.5739727, 9.0616045
08:35:30,331,-2.4318755,0.9924668, -2.682643,4.7209167, -4.0640078, 8.352921
08:35:30,332,-2.5287397,1.0255237, -2.5077727,4.7209167, -4.0640078, 8.352921
08:35:30,333,-2.5287397,1.0255237, -2.5077727,3.2005987, -2.2875102, 6.6769795
08:35:30,334,-2.5515573,1.0936399, -2.481293,3.2005987, -2.2875102, 6.6769795
08:35:30,335,-2.5515573,1.0936399, -2.481293,-1.2167034, -4.020912, 7.8956285
08:35:30,336,-2.4826684,1.1343628, -2.582937,-1.2167034, -4.020912, 7.8956285
08:35:30,337,-2.4826684,1.1343628, -2.582937,-4.274099, -3.235614, 7.1534257
08:35:30,338,-2.1633754,1.2073833, -3.0011444,-4.274099, -3.235614, 7.1534257
08:35:30,339,-2.1633754,1.2073833, -3.0011444,-4.345925, -3.4822168, 8.020126
08:35:30,340,-1.8421525,1.1699437, 2.8519182,-4.345925, -3.4822168, 8.020126
08:35:30,341,-1.8421525,1.1699437, 2.8519182,-4.2573395, -2.3832781, 7.962666
08:35:30,342,-1.6709296,1.1495533, 2.5922096,-4.2573395, -2.3832781, 7.962666
08:35:30,343,-1.6709296,1.1495533, 2.5922096,-3.0362966, -3.5779848, 8.973019
08:35:30,344,-1.6681565,1.131649, 2.5622525,-3.0362966, -3.5779848, 8.973019
08:35:30,345,-1.6681565,1.131649, 2.5622525,-2.7250504, -2.9459155, 8.8389435
08:35:30,346,-1.6437389,1.1304384, 2.5221074,-2.7250504, -2.9459155, 8.8389435
08:35:30,347,-1.6437389,1.1304384, 2.5221074,-4.013131, -2.5077767, 7.6346602
08:35:30,348,-1.6202568,1.140093, 2.5060558,-4.013131, -2.5077767, 7.6346602
08:35:30,349,-1.6202568,1.140093, 2.5060558,-3.0099604, -2.809446, 8.233211
08:35:30,350,-1.6716111,1.1430411, 2.6051493,-3.0099604, -2.809446, 8.233211
08:35:30,351,-1.6716111,1.1430411, 2.6051493,-4.9420815, -3.4750342, 6.344186
08:35:30,352,-1.6736263,1.1396312, 2.6474931,-4.9420815, -3.4750342, 6.344186
08:35:30,353,-1.6736263,1.1396312, 2.6474931,-3.9604585, -4.375254, 6.8062663
08:35:30,354,-1.754804,1.1085814, 2.8373957,-3.9604585, -4.375254, 6.8062663
08:35:30,355,-1.754804,1.1085814, 2.8373957,-1.6309003, -4.849306, 7.265953
08:35:30,356,-1.8423423,1.0721, 3.0302436,-1.6309003, -4.849306, 7.265953
08:35:31,357,-1.8423423,1.0721, 3.0302436,2.7002106, -4.6529813, 8.197298
08:35:31,358,-1.9482768,1.028039, -3.084084,2.7002106, -4.6529813, 8.197298
08:35:31,359,-1.9482768,1.028039, -3.084084,4.3522096, -5.234772, 6.928371
08:35:31,360,-2.0101883,0.99188906, -3.0163994,4.3522096, -5.234772, 6.928371
08:35:31,361,-2.0101883,0.99188906, -3.0163994,5.0824413, -5.0001407, 6.1526494
08:35:31,362,-2.1290982,0.88885915, -2.933837,5.0824413, -5.0001407, 6.1526494
08:35:31,363,-2.1290982,0.88885915, -2.933837,3.8183029, -4.858883, 6.858939
08:35:31,364,-2.2225845,0.80923253, -2.900104,3.8183029, -4.858883, 6.858939
08:35:31,365,-2.2225845,0.80923253, -2.900104,5.4894557, -4.008941, 7.1390605
08:35:31,366,-2.2612119,0.78722924, -2.9008965,5.4894557, -4.008941, 7.1390605
08:35:31,367,-2.2612119,0.78722924, -2.9008965,2.798373, -8.474127, 9.98816
08:35:31,368,-2.2524157,0.74610966, -2.9341352,2.798373, -8.474127, 9.98816
08:35:31,369,-2.2524157,0.74610966, -2.9341352,1.6611271, -6.369624, 7.4191823
08:35:31,370,-2.2665472,0.8141366, -2.9802399,1.6611271, -6.369624, 7.4191823
08:35:31,371,-2.2665472,0.8141366, -2.9802399,0.5765537, -8.095843, 7.9674544
08:35:31,372,-2.2551873,0.85016876, -3.0171967,0.5765537, -8.095843, 7.9674544
08:35:31,373,-2.2551873,0.85016876, -3.0171967,0.21742344, -6.309769, 6.978649
08:35:31,374,-2.2143767,0.8793067, -3.0518768,0.21742344, -6.309769, 6.978649
08:35:31,375,-2.2143767,0.8793067, -3.0518768,-0.14888942, -5.9003606, 7.36651
08:35:31,376,-2.2013643,0.87086254, -3.0610576,-0.14888942, -5.9003606, 7.36651
08:35:31,377,-2.2013643,0.87086254, -3.0610576,0.54064065, -6.1996355, 7.4574895
08:35:31,378,-2.196996,0.86059785, -3.066109,0.54064065, -6.1996355, 7.4574895
08:35:31,379,-2.196996,0.86059785, -3.066109,0.425719, -6.182876, 7.5795937
08:35:31,380,-2.197866,0.85821235, -3.067283,0.425719, -6.182876, 7.5795937
08:35:31,381,-2.197866,0.85821235, -3.067283,0.4233248, -6.254702, 7.330597
08:35:31,382,-2.199965,0.8514668, -3.065828,0.4233248, -6.254702, 7.330597
08:35:31,383,-2.199965,0.8514668, -3.065828,0.38980597, -6.2140007, 7.2827125
08:35:31,384,-2.1999507,0.851526, -3.0658867,0.38980597, -6.2140007, 7.2827125
08:35:32,385,-2.1999507,0.851526, -3.0658867,0.425719, -6.206818, 7.3473563
08:35:32,386,-2.1988497,0.854669, -3.0667489,0.425719, -6.206818, 7.3473563
08:35:32,387,-2.1988497,0.854669, -3.0667489,0.4209306, -6.2738557, 7.4479127
08:35:32,388,-2.1977046,0.86182374, -3.068452,0.4209306, -6.2738557, 7.4479127
08:35:32,389,-2.1977046,0.86182374, -3.068452,0.425719, -6.2092123, 7.5412865
08:35:32,390,-2.1933994,0.8772461, -3.071498,0.425719, -6.2092123, 7.5412865
08:35:32,391,-2.1933994,0.8772461, -3.071498,0.25333646, -6.060772, 7.632266
08:35:32,392,-2.1902218,0.8822684, -3.0738006,0.25333646, -6.060772, 7.632266
08:35:32,393,-2.1902218,0.8822684, -3.0738006,0.3084031, -5.9003606, 7.428759
08:35:32,394,-2.1850207,0.88865113, -3.0777147,0.3084031, -5.9003606, 7.428759
08:35:32,395,-2.1850207,0.88865113, -3.0777147,0.28924948, -5.9578214, 7.6873326
08:35:32,396,-2.1810918,0.8951065, -3.0816631,0.28924948, -5.9578214, 7.6873326
08:35:32,397,-2.1810918,0.8951065, -3.0816631,0.28924948, -5.8644476, 7.570017
08:35:32,398,-2.178405,0.9071432, -3.0857582,0.28924948, -5.8644476, 7.570017
08:35:32,399,-2.178405,0.9071432, -3.0857582,0.20066403, -5.8021984, 7.8333793
08:35:32,400,-2.1772118,0.91301227, -3.088112,0.20066403, -5.8021984, 7.8333793
08:35:32,401,-2.1772118,0.91301227, -3.088112,0.25573066, -5.6776996, 7.840562
08:35:32,402,-2.1759315,0.9211636, -3.0904827,0.25573066, -5.6776996, 7.840562
08:35:32,403,-2.1759315,0.9211636, -3.0904827,0.20545243, -5.7136126, 7.8046484
08:35:32,404,-2.1718924,0.9265588, -3.0944023,0.20545243, -5.7136126, 7.8046484
08:35:32,405,-2.1718924,0.9265588, -3.0944023,0.1599626, -5.670517, 7.811831
08:35:32,406,-2.1663084,0.93090165, -3.0992448,0.1599626, -5.670517, 7.811831
08:35:32,407,-2.1663084,0.93090165, -3.0992448,0.21502924, -5.708824, 7.8381677
08:35:32,408,-2.1648784,0.9316465, -3.1002538,0.21502924, -5.708824, 7.8381677
08:35:32,409,-2.1648784,0.9316465, -3.1002538,0.16475101, -5.7016416, 7.9075994
08:35:32,410,-2.1635106,0.9328647, -3.1012948,0.16475101, -5.7016416, 7.9075994
08:35:32,411,-2.1635106,0.9328647, -3.1012948,0.15278, -5.696853, 7.8501387
08:35:32,412,-2.1633942,0.9330367, -3.1014423,0.15278, -5.696853, 7.8501387
08:35:32,413,-2.1633942,0.9330367, -3.1014423,0.20066403, -5.536442, 7.761553
08:35:33,414,-2.163322,0.93315136, -3.101546,0.20066403, -5.536442, 7.761553
08:35:33,415,-2.163322,0.93315136, -3.101546,0.22460605, -5.500529, 7.7807064
08:35:33,416,-2.1633286,0.933295, -3.101555,0.22460605, -5.500529, 7.7807064
08:35:33,417,-2.1633286,0.933295, -3.101555,0.1551742, -5.668123, 7.8046484
08:35:33,418,-2.163183,0.9334238, -3.1017163,0.1551742, -5.668123, 7.8046484
08:35:33,419,-2.163183,0.9334238, -3.1017163,0.1599626, -5.694459, 7.962666
08:35:33,420,-2.1630957,0.9336104, -3.1018069,0.1599626, -5.694459, 7.962666
08:35:33,421,-2.1630957,0.9336104, -3.1018069,0.19826983, -5.5795374, 7.785495
08:35:33,422,-2.1638322,0.93374074, -3.1019788,0.19826983, -5.5795374, 7.785495
08:35:33,423,-2.1638322,0.93374074, -3.1019788,0.23418285, -5.5795374, 7.8214083
08:35:33,424,-2.1655202,0.9340177, -3.101143,0.23418285, -5.5795374, 7.8214083
08:35:33,425,-2.1655202,0.9340177, -3.101143,0.21263504, -5.63221, 7.8860517
08:35:33,426,-2.1683586,0.93376315, -3.100099,0.21263504, -5.63221, 7.8860517
08:35:33,427,-2.1683586,0.93376315, -3.100099,0.19826983, -5.6776996, 7.8716865
08:35:33,428,-2.1720557,0.9337934, -3.0979562,0.19826983, -5.6776996, 7.8716865
08:35:33,429,-2.1720557,0.9337934, -3.0979562,0.18869302, -5.5675664, 7.8573213
08:35:33,430,-2.1728935,0.9343966, -3.0977457,0.18869302, -5.5675664, 7.8573213
08:35:33,431,-2.1728935,0.9343966, -3.0977457,0.23418285, -5.58672, 7.7471876
08:35:33,432,-2.1728578,0.9344541, -3.0977972,0.23418285, -5.58672, 7.7471876
08:35:33,433,-2.1728578,0.9344541, -3.0977972,0.20066403, -5.5819316, 7.842956
08:35:33,434,-2.1728003,0.9346122, -3.09787,0.20066403, -5.5819316, 7.842956
08:35:33,435,-2.1728003,0.9346122, -3.09787,0.21502924, -5.766285, 8.017733
08:35:33,436,-2.172972,0.9345548, -3.0981727,0.21502924, -5.766285, 8.017733
08:35:33,437,-2.172972,0.9345548, -3.0981727,0.23178865, -5.500529, 7.8261967
08:35:33,438,-2.1739767,0.93422365, -3.0976956,0.23178865, -5.500529, 7.8261967
08:35:33,439,-2.1739767,0.93422365, -3.0976956,0.2629133, -5.548413, 7.79986
08:35:33,440,-2.1740143,0.93430966, -3.0976455,0.2629133, -5.548413, 7.79986
08:35:33,441,-2.1740143,0.93430966, -3.0976455,0.21742344, -5.490952, 7.8477445
08:35:33,442,-2.173965,0.9345398, -3.0977259,0.21742344, -5.490952, 7.8477445
08:35:34,443,-2.173965,0.9345398, -3.0977259,0.27009588, -5.584326, 7.8381677
08:35:34,444,-2.1744297,0.9339647, -3.0977578,0.27009588, -5.584326, 7.8381677
08:35:34,445,-2.1744297,0.9339647, -3.0977578,0.23657705, -5.584326, 7.802254
08:35:34,446,-2.1743941,0.93409413, -3.0978088,0.23657705, -5.584326, 7.802254
08:35:34,447,-2.1743941,0.93409413, -3.0978088,0.22460605, -5.648969, 7.79986
08:35:34,448,-2.1748328,0.93379194, -3.0976825,0.22460605, -5.648969, 7.79986
08:35:34,449,-2.1748328,0.93379194, -3.0976825,0.25094226, -5.6417866, 7.8716865
08:35:34,450,-2.1747913,0.93399316, -3.0977268,0.25094226, -5.6417866, 7.8716865
08:35:34,451,-2.1747913,0.93399316, -3.0977268,0.22939445, -5.584326, 7.809437
08:35:34,452,-2.1747203,0.93418014, -3.097829,0.22939445, -5.584326, 7.809437
08:35:34,453,-2.1747203,0.93418014, -3.097829,0.23897126, -5.6058736, 7.8597155
08:35:34,454,-2.174657,0.9344101, -3.0978951,0.23897126, -5.6058736, 7.8597155
08:35:34,455,-2.174657,0.9344101, -3.0978951,0.22939445, -5.5819316, 7.864504
08:35:34,456,-2.1746292,0.9345107, -3.0979104,0.22939445, -5.5819316, 7.864504
08:35:34,457,-2.1746292,0.9345107, -3.0979104,0.24615386, -5.550807, 7.852533
08:35:34,458,-2.174675,0.93474054, -3.0978675,0.24615386, -5.550807, 7.852533
08:35:34,459,-2.174675,0.93474054, -3.0978675,0.19108722, -5.596297, 7.9291472
08:35:34,460,-2.1745465,0.934985, -3.0979993,0.19108722, -5.596297, 7.9291472
08:35:34,461,-2.1745465,0.934985, -3.0979993,0.19587563, -5.478981, 7.8214083
08:35:34,462,-2.1733816,0.9349285, -3.0991488,0.19587563, -5.478981, 7.8214083
08:35:34,463,-2.1733816,0.9349285, -3.0991488,0.22221185, -5.584326, 7.8836575
08:35:34,464,-2.1733537,0.93502915, -3.099164,0.22221185, -5.584326, 7.8836575
08:35:34,465,-2.1733537,0.93502915, -3.099164,0.18151042, -5.572355, 7.924359
08:35:34,466,-2.17326,0.9352447, -3.0992887,0.18151042, -5.572355, 7.924359
08:35:34,467,-2.17326,0.9352447, -3.0992887,0.20066403, -5.610662, 7.89084
08:35:34,468,-2.1733897,0.93530214, -3.0995054,0.20066403, -5.610662, 7.89084
08:35:34,469,-2.1733897,0.93530214, -3.0995054,0.20545243, -5.6417866, 7.775918
08:35:34,470,-2.173318,0.9354602, -3.0995646,0.20545243, -5.6417866, 7.775918
08:35:35,471,-2.173318,0.9354602, -3.0995646,0.21981764, -5.526865, 7.8692923
08:35:35,472,-2.1733413,0.9355751, -3.099544,0.21981764, -5.526865, 7.8692923
08:35:35,473,-2.1733413,0.9355751, -3.099544,0.23897126, -5.608268, 7.9195704
08:35:35,474,-2.1731305,0.9358051, -3.0999012,0.23897126, -5.608268, 7.9195704
08:35:35,475,-2.1731305,0.9358051, -3.0999012,0.1695394, -5.553201, 7.785495
08:35:35,476,-2.1730666,0.93603486, -3.0999682,0.1695394, -5.553201, 7.785495
08:35:35,477,-2.1730666,0.93603486, -3.0999682,0.18390462, -5.5915084, 7.8214083
08:35:35,478,-2.1729074,0.93626475, -3.1001587,0.18390462, -5.5915084, 7.8214083
08:35:35,479,-2.1729074,0.93626475, -3.1001587,0.1503858, -5.5699606, 7.8980227
08:35:35,480,-2.172879,0.936394, -3.100218,0.1503858, -5.5699606, 7.8980227
08:35:35,481,-2.172879,0.936394, -3.100218,0.1479916, -5.5436244, 7.8573213
08:35:35,482,-2.1727054,0.9366239, -3.1003947,0.1479916, -5.5436244, 7.8573213
08:35:35,483,-2.1727054,0.9366239, -3.1003947,0.1551742, -5.620239, 7.8357735
08:35:35,484,-2.1725895,0.9367961, -3.1005416,0.1551742, -5.620239, 7.8357735
08:35:35,485,-2.1725895,0.9367961, -3.1005416,0.119261175, -5.536442, 7.866898
08:35:35,486,-2.1724596,0.93699723, -3.1007183,0.119261175, -5.536442, 7.866898
08:35:35,487,-2.1724596,0.93699723, -3.1007183,0.121655375, -5.5939026, 7.8836575
08:35:35,488,-2.1723359,0.9370978, -3.1008575,0.121655375, -5.5939026, 7.8836575
08:35:35,489,-2.1723359,0.9370978, -3.1008575,0.14320318, -5.6058736, 7.9219646
08:35:35,490,-2.1724691,0.93716943, -3.101429,0.14320318, -5.6058736, 7.9219646
08:35:35,491,-2.1724691,0.93716943, -3.101429,0.14080898, -5.548413, 7.924359
08:35:35,492,-2.172575,0.93761456, -3.1021059,0.14080898, -5.548413, 7.924359
08:35:35,493,-2.172575,0.93761456, -3.1021059,0.13841479, -5.6034794, 7.962666
08:35:35,494,-2.1724803,0.9378299, -3.1022313,0.13841479, -5.6034794, 7.962666
08:35:35,495,-2.1724803,0.9378299, -3.1022313,0.11686697, -5.5077114, 7.948301
08:35:35,496,-2.1723719,0.93797344, -3.1023428,0.11686697, -5.5077114, 7.948301
08:35:35,497,-2.1723719,0.93797344, -3.1023428,0.14080898, -5.6298156, 7.900417
08:35:35,498,-2.1722553,0.93821734, -3.1024904,0.14080898, -5.6298156, 7.900417
08:35:35,499,-2.1722553,0.93821734, -3.1024904,0.14080898, -5.5675664, 7.89084
08:35:36,500,-2.1721463,0.9384613, -3.1026459,0.14080898, -5.5675664, 7.89084
08:35:36,501,-2.1721463,0.9384613, -3.1026459,0.1479916, -5.5316534, 7.89084
08:35:36,502,-2.1720595,0.938648, -3.1027358,0.1479916, -5.5316534, 7.89084
08:35:36,503,-2.1720595,0.938648, -3.1027358,0.17672202, -5.5555954, 7.8597155
08:35:36,504,-2.172045,0.9387485, -3.1027656,0.17672202, -5.5555954, 7.8597155
08:35:36,505,-2.172045,0.9387485, -3.1027656,0.07855974, -5.550807, 7.8836575
08:35:36,506,-2.1718261,0.93899226, -3.1030312,0.07855974, -5.550807, 7.8836575
08:35:36,507,-2.1718261,0.93899226, -3.1030312,-0.026785132, -5.9841576, 8.7910595
08:35:36,508,-2.1658943,0.94180954, -3.1053226,-0.026785132, -5.9841576, 8.7910595
08:35:36,509,-2.1658943,0.94180954, -3.1053226,-0.5702689, -6.0918965, 8.96823
08:35:36,510,-2.1541355,0.9257376, -3.1083426,-0.5702689, -6.0918965, 8.96823
08:35:36,511,-2.1541355,0.9257376, -3.1083426,0.74414784, -5.692065, 7.694515
08:35:36,512,-2.1707697,0.91740423, -3.0663378,0.74414784, -5.692065, 7.694515
08:35:36,513,-2.1707697,0.91740423, -3.0663378,0.23657705, -4.375254, 7.584382
08:35:36,514,-2.1504452,0.9856065, -3.0453746,0.23657705, -4.375254, 7.584382
08:35:36,515,-2.1504452,0.9856065, -3.0453746,0.27009588, -4.4494743, 9.583541
08:35:36,516,-2.0830638,1.0519209, -3.0813966,0.27009588, -4.4494743, 9.583541
08:35:36,517,-2.0830638,1.0519209, -3.0813966,1.0146927, -5.232378, 10.117448
08:35:36,518,-2.0593755,1.0475093, -3.0863266,1.0146927, -5.232378, 10.117448
08:35:36,519,-2.0593755,1.0475093, -3.0863266,6.222081, -9.055919, 10.27307
08:35:36,520,-2.0768697,0.9419182, -2.984175,6.222081, -9.055919, 10.27307
08:35:36,521,-2.0768697,0.9419182, -2.984175,4.866963, -8.00247, 7.3497505
08:35:36,522,-2.0632696,0.96047026, -2.8245275,4.866963, -8.00247, 7.3497505
08:35:36,523,-2.0632696,0.96047026, -2.8245275,4.3258734, -5.577143, 7.182156
08:35:36,524,-2.0742638,1.0242474, -2.590632,4.3258734, -5.577143, 7.182156
08:35:36,525,-2.0742638,1.0242474, -2.590632,4.105607, -3.5731964, 6.4351654
08:35:36,526,-2.0789692,1.0618644, -2.4834845,4.105607, -3.5731964, 6.4351654
08:35:36,527,-2.0789692,1.0618644, -2.4834845,1.3450924, -1.918803, 6.9259768
08:35:36,528,-2.021284,1.1531184, -2.4288924,1.3450924, -1.918803, 6.9259768
08:35:37,529,-2.021284,1.1531184, -2.4288924,-3.5175312, -2.0337248, 5.8485856
08:35:37,530,-1.6702884,1.2014879, -2.801159,-3.5175312, -2.0337248, 5.8485856
08:35:37,531,-1.6702884,1.2014879, -2.801159,-5.2652984, -3.3936312, 8.376863
08:35:37,532,-1.2297872,1.1995969, 2.9588358,-5.2652984, -3.3936312, 8.376863
08:35:37,533,-1.2297872,1.1995969, 2.9588358,-5.9787707, -2.5412955, 7.378481
08:35:37,534,-1.0956514,1.1818646, 2.7670684,-5.9787707, -2.5412955, 7.378481
08:35:37,535,-1.0956514,1.1818646, 2.7670684,-4.798429, -1.1430817, 8.29546
08:35:37,536,-0.91784805,1.1801293, 2.481055,-4.798429, -1.1430817, 8.29546
08:35:37,537,-0.91784805,1.1801293, 2.481055,-4.084957, -2.797475, 8.257153
08:35:37,538,-0.95496905,1.1282414, 2.465482,-4.084957, -2.797475, 8.257153
08:35:37,539,-0.95496905,1.1282414, 2.465482,-4.7337856, -1.9810523, 7.656208
08:35:37,540,-0.9028452,1.1240426, 2.4172485,-4.7337856, -1.9810523, 7.656208
08:35:37,541,-0.9028452,1.1240426, 2.4172485,-5.437681, -2.9722517, 7.4550953
08:35:37,542,-0.8877435,1.1137123, 2.4141805,-5.437681, -2.9722517, 7.4550953
08:35:37,543,-0.8877435,1.1137123, 2.4141805,-6.443246, -2.8860605, 6.8613334
08:35:37,544,-0.9132375,1.1036386, 2.503199,-6.443246, -2.8860605, 6.8613334
08:35:37,545,-0.9132375,1.1036386, 2.503199,-4.7098436, -2.704101, 6.6985273
08:35:37,546,-0.998463,1.1055197, 2.6864192,-4.7098436, -2.704101, 6.6985273
08:35:37,547,-0.998463,1.1055197, 2.6864192,0.16235681, -4.2746973, 6.4255886
08:35:37,548,-1.2104331,1.0787239, 2.9666543,0.16235681, -4.2746973, 6.4255886
08:35:37,549,-1.2104331,1.0787239, 2.9666543,3.739294, -5.3018103, 6.339397
08:35:37,550,-1.3594266,1.0298201, 3.1032505,3.739294, -5.3018103, 6.339397
08:35:37,551,-1.3594266,1.0298201, 3.1032505,5.882105, -8.522012, 5.721693
08:35:37,552,-1.5470729,0.836741, -3.1250856,5.882105, -8.522012, 5.721693
08:35:37,553,-1.5470729,0.836741, -3.1250856,5.5612817, -9.266608, 4.2181344
08:35:37,554,-1.7381115,0.69912994, -3.1324842,5.5612817, -9.266608, 4.2181344
08:35:37,555,-1.7381115,0.69912994, -3.1324842,4.342633, -5.7519197, 4.323479
08:35:37,556,-1.9017897,0.7232407, -3.1085887,4.342633, -5.7519197, 4.323479
08:35:38,557,-1.9017897,0.7232407, -3.1085887,4.26123, -9.4557495, 7.2108865
08:35:38,558,-1.962578,0.7206937, -3.1075475,4.26123, -9.4557495, 7.2108865
08:35:38,559,-1.962578,0.7206937, -3.1075475,2.894141, -8.926631, 7.524527
08:35:38,560,-2.0548937,0.7287545, -3.091843,2.894141, -8.926631, 7.524527
08:35:38,561,-2.0548937,0.7287545, -3.091843,0.8590695, -6.9562035, 7.4670663
08:35:38,562,-2.1005912,0.7742099, -3.072369,0.8590695, -6.9562035, 7.4670663
08:35:38,563,-2.1005912,0.7742099, -3.072369,-0.5367501, -8.27062, 8.331373
08:35:38,564,-2.0831857,0.7486184, -3.0992742,-0.5367501, -8.27062, 8.331373
08:35:38,565,-2.0831857,0.7486184, -3.0992742,0.4305074, -7.494899, 6.6027594
08:35:38,566,-2.0813298,0.73225504, -3.099677,0.4305074, -7.494899, 6.6027594
08:35:38,567,-2.0813298,0.73225504, -3.099677,0.3155857, -7.724742, 6.475867
08:35:38,568,-2.0615096,0.7257562, -3.1050267,0.3155857, -7.724742, 6.475867
08:35:38,569,-2.0615096,0.7257562, -3.1050267,0.7968203, -7.617003, 6.0712466
08:35:38,570,-2.0614223,0.711971, -3.0975053,0.7968203, -7.617003, 6.0712466
08:35:38,571,-2.0614223,0.711971, -3.0975053,0.65077394, -7.58109, 6.162226
08:35:38,572,-2.07154,0.69913244, -3.0871203,0.65077394, -7.58109, 6.162226
08:35:38,573,-2.07154,0.69913244, -3.0871203,0.67232174, -7.399131, 6.06167
08:35:38,574,-2.0783267,0.6938348, -3.0816324,0.67232174, -7.399131, 6.06167
08:35:38,575,-2.0783267,0.6938348, -3.0816324,0.73935944, -7.4206786, 6.2268696
08:35:38,576,-2.090005,0.69336015, -3.073309,0.73935944, -7.4206786, 6.2268696
08:35:38,577,-2.090005,0.69336015, -3.073309,0.8351275, -7.6002436, 6.269965
08:35:38,578,-2.0972047,0.69209504, -3.0673702,0.8351275, -7.6002436, 6.269965
08:35:38,579,-2.0972047,0.69209504, -3.0673702,0.73696524, -7.437438, 6.088006
08:35:38,580,-2.0971565,0.691891, -3.0666068,0.73696524, -7.437438, 6.088006
08:35:38,581,-2.0971565,0.691891, -3.0666068,0.6818986, -7.607426, 6.193351
08:35:38,582,-2.0972295,0.69181716, -3.066516,0.6818986, -7.607426, 6.193351
08:35:38,583,-2.0972295,0.69181716, -3.066516,0.6914754, -7.4087076, 6.147861
08:35:38,584,-2.0982995,0.6933356, -3.0665293,0.6914754, -7.4087076, 6.147861
08:35:39,585,-2.0982995,0.6933356, -3.0665293,0.64598554, -7.3105454, 6.257994
08:35:39,586,-2.1027098,0.69970167, -3.064975,0.64598554, -7.3105454, 6.257994
08:35:39,587,-2.1027098,0.69970167, -3.064975,0.65556234, -7.423073, 6.3226376
08:35:39,588,-2.1110213,0.7064173, -3.0610929,0.65556234, -7.423073, 6.3226376
08:35:39,589,-2.1110213,0.7064173, -3.0610929,0.76808983, -7.2578726, 6.34658
08:35:39,590,-2.115872,0.7129232, -3.058492,0.76808983, -7.2578726, 6.34658
08:35:39,591,-2.115872,0.7129232, -3.058492,0.8207623, -7.0160584, 6.528539
08:35:39,592,-2.1218004,0.7333093, -3.054869,0.8207623, -7.0160584, 6.528539
08:35:39,593,-2.1218004,0.7333093, -3.054869,0.710629, -7.188441, 6.66022
08:35:39,594,-2.1212947,0.7295746, -3.053002,0.710629, -7.188441, 6.66022
08:35:39,595,-2.1212947,0.7295746, -3.053002,0.62922615, -7.317728, 6.0449104
08:35:39,596,-2.1187704,0.70899874, -3.0509014,0.62922615, -7.317728, 6.0449104
08:35:39,597,-2.1187704,0.70899874, -3.0509014,0.7010522, -7.494899, 6.289119
08:35:39,598,-2.1173334,0.7091919, -3.051067,0.7010522, -7.494899, 6.289119
08:35:39,599,-2.1173334,0.7091919, -3.051067,0.6818986, -7.391948, 6.528539
08:35:39,600,-2.117188,0.7142509, -3.0508256,0.6818986, -7.391948, 6.528539
08:35:39,601,-2.117188,0.7142509, -3.0508256,0.7010522, -7.169287, 6.2963014
08:35:39,602,-2.1213984,0.71200436, -3.0497756,0.7010522, -7.169287, 6.2963014
08:35:39,603,-2.1213984,0.71200436, -3.0497756,0.7752724, -7.262661, 6.3082724
08:35:39,604,-2.1266232,0.7137124, -3.0488276,0.7752724, -7.262661, 6.3082724
08:35:39,605,-2.1266232,0.7137124, -3.0488276,0.8638579, -7.193229, 6.3202434
08:35:39,606,-2.1289356,0.7155986, -3.0484307,0.8638579, -7.193229, 6.3202434
08:35:39,607,-2.1289356,0.7155986, -3.0484307,0.6052841, -7.368006, 6.4615016
08:35:39,608,-2.1288283,0.71440315, -3.0516207,0.6052841, -7.368006, 6.4615016
08:35:39,609,-2.1288283,0.71440315, -3.0516207,0.64837974, -7.2099886, 6.468684
08:35:39,610,-2.1289914,0.7232629, -3.0564857,0.64837974, -7.2099886, 6.468684
08:35:39,611,-2.1289914,0.7232629, -3.0564857,0.686687, -7.0136642, 6.468684
08:35:39,612,-2.1301575,0.7382388, -3.0607266,0.686687, -7.0136642, 6.468684
08:35:39,613,-2.1301575,0.7382388, -3.0607266,0.7130232, -7.188441, 6.595577
08:35:40,614,-2.1313663,0.74487406, -3.0623002,0.7130232, -7.188441, 6.595577
08:35:40,615,-2.1313663,0.74487406, -3.0623002,0.50712186, -6.9466267, 6.940342
08:35:40,616,-2.1307535,0.7636024, -3.067501,0.50712186, -6.9466267, 6.940342
08:35:40,617,-2.1307535,0.7636024, -3.067501,0.2653075, -6.656928, 6.87091
08:35:40,618,-2.1297095,0.7785013, -3.074265,0.2653075, -6.656928, 6.87091
08:35:40,619,-2.1297095,0.7785013, -3.074265,0.38262334, -6.7742443, 6.813449
08:35:40,620,-2.1349807,0.78134006, -3.0750878,0.38262334, -6.7742443, 6.813449
08:35:40,621,-2.1349807,0.78134006, -3.0750878,0.6004957, -6.783821, 6.9140058
08:35:40,622,-2.1380098,0.7838612, -3.0744178,0.6004957, -6.783821, 6.9140058
08:35:40,623,-2.1380098,0.7838612, -3.0744178,0.7297826, -6.7311482, 7.095965
08:35:40,624,-2.1424558,0.7867944, -3.0717158,0.7297826, -6.7311482, 7.095965
08:35:40,625,-2.1424558,0.7867944, -3.0717158,0.48317984, -6.702418, 6.942736
08:35:40,626,-2.1395264,0.78729224, -3.0735059,0.48317984, -6.702418, 6.942736
08:35:40,627,-2.1395264,0.78729224, -3.0735059,0.39459437, -6.750302, 6.952313
08:35:40,628,-2.131681,0.783492, -3.0780838,0.39459437, -6.750302, 6.952313
08:35:40,629,-2.131681,0.783492, -3.0780838,0.39698857, -6.8269167, 6.7583823
08:35:40,630,-2.129841,0.77985895, -3.0788178,0.39698857, -6.8269167, 6.7583823
08:35:40,631,-2.129841,0.77985895, -3.0788178,0.33713353, -6.8149457, 6.9164
08:35:40,632,-2.1290562,0.77847314, -3.0801547,0.33713353, -6.8149457, 6.9164
08:35:40,633,-2.1290562,0.77847314, -3.0801547,0.4664204, -6.8388877, 6.892458
08:35:40,634,-2.132836,0.77701837, -3.078244,0.4664204, -6.8388877, 6.892458
08:35:40,635,-2.132836,0.77701837, -3.078244,0.4640262, -6.7119946, 6.892458
08:35:40,636,-2.1355402,0.7774186, -3.0762937,0.4640262, -6.7119946, 6.892458
08:35:40,637,-2.1355402,0.7774186, -3.0762937,0.53345805, -6.7000237, 6.70571
08:35:40,638,-2.1355963,0.77744865, -3.076209,0.53345805, -6.7000237, 6.70571
08:35:40,639,-2.1355963,0.77744865, -3.076209,0.51430446, -6.75509, 6.7607765
08:35:40,640,-2.1356041,0.77752256, -3.0762181,0.51430446, -6.75509, 6.7607765
08:35:40,641,-2.1356041,0.77752256, -3.0762181,0.47599724, -6.7455134, 6.940342
08:35:40,642,-2.1366389,0.7771718, -3.0755875,0.47599724, -6.7455134, 6.940342
08:35:41,643,-2.1366389,0.7771718, -3.0755875,0.4712088, -6.867618, 6.866122
08:35:41,644,-2.1371539,0.7764031, -3.0757036,0.4712088, -6.867618, 6.866122
08:35:41,645,-2.1371539,0.7764031, -3.0757036,0.4664204, -6.762273, 6.84218
08:35:41,646,-2.1371534,0.77647716, -3.075704,0.4664204, -6.762273, 6.84218
08:35:41,647,-2.1371534,0.77647716, -3.075704,0.53345805, -6.702418, 6.9164
08:35:41,648,-2.1377945,0.77625674, -3.0756369,0.53345805, -6.702418, 6.9164
08:35:41,649,-2.1377945,0.77625674, -3.0756369,0.4688146, -6.7191772, 6.8733044
08:35:41,650,-2.137766,0.77650756, -3.0759995,0.4688146, -6.7191772, 6.8733044
08:35:41,651,-2.137766,0.77650756, -3.0759995,0.37065235, -6.8388877, 6.966678
08:35:41,652,-2.1376789,0.7767291, -3.076092,0.37065235, -6.8388877, 6.966678
08:35:41,653,-2.1376789,0.7767291, -3.076092,0.4424784, -6.8580413, 6.9211884
08:35:41,654,-2.1376514,0.7767881, -3.076136,0.4424784, -6.8580413, 6.9211884
08:35:41,655,-2.1376514,0.7767881, -3.076136,0.38741177, -6.7072062, 6.87091
08:35:41,656,-2.137626,0.7769951, -3.0761838,0.38741177, -6.7072062, 6.87091
08:35:41,657,-2.137626,0.7769951, -3.0761838,0.43769, -6.7766385, 6.8876696
08:35:41,658,-2.1381853,0.7765375, -3.0762782,0.43769, -6.7766385, 6.8876696
08:35:41,659,-2.1381853,0.7765375, -3.0762782,0.37544075, -6.8388877, 6.9164
08:35:41,660,-2.138134,0.7767, -3.076335,0.37544075, -6.8388877, 6.9164
08:35:41,661,-2.138134,0.7767, -3.076335,0.43769, -6.7574844, 6.8637276
08:35:41,662,-2.1381772,0.77678895, -3.0763085,0.43769, -6.7574844, 6.8637276
08:35:41,663,-2.1381772,0.77678895, -3.0763085,0.4664204, -6.805369, 6.9092174
08:35:41,664,-2.1379495,0.7768763, -3.0767176,0.4664204, -6.805369, 6.9092174
08:35:41,665,-2.1379495,0.7768763, -3.0767176,0.461632, -6.767061, 6.8852754
08:35:41,666,-2.1381354,0.77668464, -3.0765831,0.461632, -6.767061, 6.8852754
08:35:41,667,-2.1381354,0.77668464, -3.0765831,0.41135377, -6.7766385, 6.9092174
08:35:41,668,-2.138033,0.7768471, -3.0765886,0.41135377, -6.7766385, 6.9092174
08:35:41,669,-2.138033,0.7768471, -3.0765886,0.38022915, -6.8005805, 6.8637276
08:35:41,670,-2.1380055,0.7769062, -3.0766327,0.38022915, -6.8005805, 6.8637276
08:35:42,671,-2.1380055,0.7769062, -3.0766327,0.473603, -6.7742443, 6.9140058
08:35:42,672,-2.1379714,0.7771132, -3.076672,0.473603, -6.7742443, 6.9140058
08:35:42,673,-2.1379714,0.7771132, -3.076672,0.4233248, -6.795792, 6.8756986
08:35:42,674,-2.1379342,0.77727574, -3.0767431,0.4233248, -6.795792, 6.8756986
08:35:42,675,-2.1379342,0.77727574, -3.0767431,0.36107555, -6.8819833, 6.8733044
08:35:42,676,-2.1375327,0.7767842, -3.0776055,0.36107555, -6.8819833, 6.8733044
08:35:42,677,-2.1375327,0.7767842, -3.0776055,0.44726682, -6.819734, 6.8373914
08:35:42,678,-2.137518,0.77685815, -3.077592,0.44726682, -6.819734, 6.8373914
08:35:42,679,-2.137518,0.77685815, -3.077592,0.4305074, -6.8029747, 6.8733044
08:35:42,680,-2.1374664,0.7770206, -3.0776486,0.4305074, -6.8029747, 6.8733044
08:35:42,681,-2.1374664,0.7770206, -3.0776486,0.32516253, -6.7790327, 6.978649
08:35:42,682,-2.137392,0.7772715, -3.0777903,0.32516253, -6.7790327, 6.978649
08:35:42,683,-2.137392,0.7772715, -3.0777903,0.37304655, -6.7694554, 6.906823
08:35:42,684,-2.136704,0.77754784, -3.078767,0.37304655, -6.7694554, 6.906823
08:35:42,685,-2.136704,0.77754784, -3.078767,0.36346975, -6.7981863, 6.8373914
08:35:42,686,-2.1366768,0.7776069, -3.0788114,0.36346975, -6.7981863, 6.8373914
08:35:42,687,-2.1366768,0.7776069, -3.0788114,0.3179799, -6.750302, 6.9355536
08:35:42,688,-2.1366153,0.7777988, -3.0788946,0.3179799, -6.750302, 6.9355536
08:35:42,689,-2.1366153,0.7777988, -3.0788946,0.39220017, -6.7742443, 6.9379478
08:35:42,690,-2.1361434,0.7781206, -3.0795245,0.39220017, -6.7742443, 6.9379478
08:35:42,691,-2.1361434,0.7781206, -3.0795245,0.36586395, -6.7766385, 6.918794
08:35:42,692,-2.1360877,0.7783125, -3.079614,0.36586395, -6.7766385, 6.918794
08:35:42,693,-2.1360877,0.7783125, -3.079614,0.34910452, -6.781427, 6.858939
08:35:42,694,-2.1360068,0.77838594, -3.0797114,0.34910452, -6.781427, 6.858939
08:35:42,695,-2.1360068,0.77838594, -3.0797114,0.36107555, -6.7479076, 6.882881
08:35:42,696,-2.1368957,0.7785368, -3.0797186,0.36107555, -6.7479076, 6.882881
08:35:42,697,-2.1368957,0.7785368, -3.0797186,0.4185364, -6.805369, 6.9499187
08:35:42,698,-2.1396043,0.77919763, -3.0789707,0.4185364, -6.805369, 6.9499187
08:35:42,699,-2.1396043,0.77919763, -3.0789707,0.38980597, -6.750302, 6.8756986
08:35:43,700,-2.142113,0.7790116, -3.0786808,0.38980597, -6.750302, 6.8756986
08:35:43,701,-2.142113,0.7790116, -3.0786808,0.34910452, -6.7910037, 6.930765
08:35:43,702,-2.1420677,0.77910006, -3.0787427,0.34910452, -6.7910037, 6.930765
08:35:43,703,-2.1420677,0.77910006, -3.0787427,0.38741177, -6.690447, 6.904429
08:35:43,704,-2.1419795,0.77935123, -3.0788696,0.38741177, -6.690447, 6.904429
08:35:43,705,-2.1419795,0.77935123, -3.0788696,0.4161422, -6.783821, 6.906823
08:35:43,706,-2.1419337,0.7795137, -3.078932,0.4161422, -6.783821, 6.906823
08:35:43,707,-2.1419337,0.7795137, -3.078932,0.39938277, -6.7119946, 6.9379478
08:35:43,708,-2.142012,0.77995694, -3.0791924,0.39938277, -6.7119946, 6.9379478
08:35:43,709,-2.142012,0.77995694, -3.0791924,0.39459437, -6.738331, 6.9116116
08:35:43,710,-2.141996,0.78006047, -3.0792131,0.39459437, -6.738331, 6.9116116
08:35:43,711,-2.141996,0.78006047, -3.0792131,0.36346975, -6.7359366, 6.9140058
08:35:43,712,-2.142086,0.7804454, -3.0790596,0.36346975, -6.7359366, 6.9140058
08:35:43,713,-2.142086,0.7804454, -3.0790596,0.33952773, -6.829311, 6.976255
08:35:43,714,-2.1420436,0.7803412, -3.079335,0.33952773, -6.829311, 6.976255
08:35:43,715,-2.1420436,0.7803412, -3.079335,0.36107555, -6.7574844, 6.8613334
08:35:43,716,-2.1434667,0.7796645, -3.078873,0.36107555, -6.7574844, 6.8613334
08:35:43,717,-2.1434667,0.7796645, -3.078873,0.33952773, -6.7910037, 7.0049853
08:35:43,718,-2.1439927,0.7799904, -3.079083,0.33952773, -6.7910037, 7.0049853
08:35:43,719,-2.1439927,0.7799904, -3.079083,0.413748, -6.7096004, 6.9020348
08:35:43,720,-2.1456642,0.7798159, -3.0785918,0.413748, -6.7096004, 6.9020348
08:35:43,721,-2.1456642,0.7798159, -3.0785918,0.461632, -6.740725, 6.9499187
08:35:43,722,-2.145666,0.7800378, -3.0785952,0.461632, -6.740725, 6.9499187
08:35:43,723,-2.145666,0.7800378, -3.0785952,0.4209306, -6.764667, 6.834997
08:35:43,724,-2.1437142,0.7802101, -3.080047,0.4209306, -6.764667, 6.834997
08:35:43,725,-2.1437142,0.7802101, -3.080047,0.413748, -6.7718496, 7.000197
08:35:43,726,-2.1437335,0.7803284, -3.0800323,0.413748, -6.7718496, 7.000197
08:35:43,727,-2.1437335,0.7803284, -3.0800323,0.2988263, -6.7766385, 6.9379478
08:35:43,728,-2.1418166,0.7808375, -3.081845,0.2988263, -6.7766385, 6.9379478
08:35:44,729,-2.1418166,0.7808375, -3.081845,0.39698857, -6.7981863, 6.9355536
08:35:44,730,-2.140351,0.78084415, -3.0831463,0.39698857, -6.7981863, 6.9355536
08:35:44,731,-2.140351,0.78084415, -3.0831463,0.38741177, -6.7862153, 6.906823
08:35:44,732,-2.1403522,0.78099203, -3.0831501,0.38741177, -6.7862153, 6.906823
08:35:44,733,-2.1403522,0.78099203, -3.0831501,0.32516253, -6.752696, 6.9618897
08:35:44,734,-2.1402967,0.78110987, -3.0832388,0.32516253, -6.752696, 6.9618897
08:35:44,735,-2.1402967,0.78110987, -3.0832388,0.28924948, -6.7742443, 6.9451303
08:35:44,736,-2.14019