Time,Record No,Azimuth,Pitch,Roll,Accel-X,Accel-Y,Accel-Z
08:35:54,0,-1.6495965,1.264573, 2.864666,0.13602059, -3.5133414, 8.8389435
08:35:54,1,-1.6495965,1.264573, 2.864666,0.13602059, -3.5133414, 8.8389435
08:35:54,2,-1.6495965,1.264573, 2.864666,0.13602059, -3.5133414, 8.8389435
08:35:54,3,-1.6495965,1.264573, 2.864666,0.13602059, -3.5133414, 8.8389435
08:35:54,4,-1.6495965,1.264573, 2.864666,0.13602059, -3.5133414, 8.8389435
08:35:54,5,-1.6495965,1.264573, 2.864666,0.13602059, -3.5133414, 8.8389435
08:35:54,6,1.5674806,1.2022623, -3.102978,0.13602059, -3.5133414, 8.8389435
08:35:54,7,1.5674806,1.2022623, -3.102978,0.04504092, -3.5995326, 8.910769
08:35:55,8,-1.9477195,1.1901921, -3.0962493,0.04504092, -3.5995326, 8.910769
08:35:55,9,-1.9477195,1.1901921, -3.0962493,0.08095395, -3.5492544, 8.958653
08:35:55,10,-1.9469621,1.1799846, -3.0971165,0.08095395, -3.5492544, 8.958653
08:35:55,11,-1.9469621,1.1799846, -3.0971165,-4.4891282E-4, -3.6019268, 8.822185
08:35:55,12,-1.9282422,1.1682681, -3.1170764,-4.4891282E-4, -3.6019268, 8.822185
08:35:55,13,-1.9282422,1.1682681, -3.1170764,-0.02439093, -3.733608, 8.788666
08:35:55,14,-1.8970593,1.1545159, -3.14058,-0.02439093, -3.733608, 8.788666
08:35:55,15,-1.8970593,1.1545159, -3.14058,-0.1249474, -3.9155672, 8.656984
08:35:55,16,-1.867873,1.1406008, 3.1286533,-0.1249474, -3.9155672, 8.656984
08:35:55,17,-1.867873,1.1406008, 3.1286533,-0.17283143, -4.3584948, 8.549245
08:35:55,18,-1.8698384,1.1270849, 3.1357481,-0.17283143, -4.3584948, 8.549245
08:35:55,19,-1.8698384,1.1270849, 3.1357481,-0.079457566, -4.4877815, 8.4008045
08:35:55,20,-1.9054457,1.1079944, -3.1082454,-0.079457566, -4.4877815, 8.4008045
08:35:55,21,-1.9054457,1.1079944, -3.1082454,0.34192193, -4.346524, 8.637831
08:35:55,22,-1.9567354,1.0990317, -3.0657258,0.34192193, -4.346524, 8.637831
08:35:55,23,-1.9567354,1.0990317, -3.0657258,0.37065235, -4.387225, 8.635437
08:35:55,24,-2.0074265,1.085865, -3.03071,0.37065235, -4.387225, 8.635437
08:35:55,25,-2.0074265,1.085865, -3.03071,0.6100725, -4.5931263, 8.589947
08:35:55,26,-2.0297215,1.078755, -3.0150242,0.6100725, -4.5931263, 8.589947
08:35:55,27,-2.0297215,1.078755, -3.0150242,0.6076783, -4.3704658, 8.48939
08:35:55,28,-2.0581095,1.069005, -2.9955196,0.6076783, -4.3704658, 8.48939
08:35:55,29,-2.0581095,1.069005, -2.9955196,0.8111855, -4.6649523, 8.570793
08:35:55,30,-2.0710385,1.0638106, -2.983368,0.8111855, -4.6649523, 8.570793
08:35:55,31,-2.0710385,1.0638106, -2.983368,0.65795654, -4.49257, 8.501361
08:35:55,32,-2.0721436,1.062681, -2.9778807,0.65795654, -4.49257, 8.501361
08:35:55,33,-2.0721436,1.062681, -2.9778807,0.7058406, -4.576367, 8.486996
08:35:55,34,-2.0707357,1.061596, -2.9767344,0.7058406, -4.576367, 8.486996
08:35:55,35,-2.0707357,1.061596, -2.9767344,0.63640875, -4.5380597, 8.302643
08:35:56,36,-2.0680022,1.0581235, -2.9731731,0.63640875, -4.5380597, 8.302643
08:35:56,37,-2.0680022,1.0581235, -2.9731731,0.9069535, -4.7032595, 8.381651
08:35:56,38,-2.0780919,1.0528262, -2.9625907,0.9069535, -4.7032595, 8.381651
08:35:56,39,-2.0780919,1.0528262, -2.9625907,0.8447043, -4.5979147, 8.386439
08:35:56,40,-2.0819106,1.0506512, -2.959524,0.8447043, -4.5979147, 8.386439
08:35:56,41,-2.0819106,1.0506512, -2.959524,0.75372463, -4.5332713, 8.441506
08:35:56,42,-2.073359,1.0514158, -2.9665303,0.75372463, -4.5332713, 8.441506
08:35:56,43,-2.073359,1.0514158, -2.9665303,0.73935944, -4.5691843, 8.434323
08:35:56,44,-2.0571313,1.0523934, -2.9772382,0.73935944, -4.5691843, 8.434323
08:35:56,45,-2.0571313,1.0523934, -2.9772382,0.76808983, -4.5691843, 8.479814
08:35:56,46,-2.0476592,1.0550746, -2.9832497,0.76808983, -4.5691843, 8.479814
08:35:56,47,-2.0476592,1.0550746, -2.9832497,0.6076783, -4.734384, 8.34095
08:35:56,48,-2.0350626,1.0548184, -2.9932775,0.6076783, -4.734384, 8.34095
08:35:56,49,-2.0350626,1.0548184, -2.9932775,0.6028899, -4.4758105, 8.467842
08:35:56,50,-2.0324357,1.0573839, -2.9976296,0.6028899, -4.4758105, 8.467842
08:35:56,51,-2.0324357,1.0573839, -2.9976296,0.61725515, -4.648193, 8.479814
08:35:56,52,-2.0318942,1.0575713, -2.9990916,0.61725515, -4.648193, 8.479814
08:35:56,53,-2.0318942,1.0575713, -2.9990916,0.61725515, -4.6936827, 8.410381
08:35:56,54,-2.0293531,1.0604519, -3.0012598,0.61725515, -4.6936827, 8.410381
08:35:56,55,-2.0293531,1.0604519, -3.0012598,0.5669769, -4.7008653, 8.422353
08:35:56,56,-2.0228097,1.0604758, -3.0061312,0.5669769, -4.7008653, 8.422353
08:35:56,57,-2.0228097,1.0604758, -3.0061312,0.6100725, -4.746355, 8.391228
08:35:56,58,-2.0203385,1.059612, -3.0077796,0.6100725, -4.746355, 8.391228
08:35:56,59,-2.0203385,1.059612, -3.0077796,0.5597943, -4.4973583, 8.475025
08:35:56,60,-2.019336,1.0590734, -3.0088193,0.5597943, -4.4973583, 8.475025
08:35:56,61,-2.019336,1.0590734, -3.0088193,0.53585225, -4.4901757, 8.554034
08:35:56,62,-2.0180745,1.0592754, -3.0104427,0.53585225, -4.4901757, 8.554034
08:35:56,63,-2.0180745,1.0592754, -3.0104427,0.5861305, -4.494964, 8.465448
08:35:56,64,-2.0179517,1.0594568, -3.0105586,0.5861305, -4.494964, 8.465448
08:35:57,65,-2.0179517,1.0594568, -3.0105586,0.55021745, -4.6410103, 8.405593
08:35:57,66,-2.018732,1.0584211, -3.0102935,0.55021745, -4.6410103, 8.405593
08:35:57,67,-2.018732,1.0584211, -3.0102935,0.54303485, -4.4255323, 8.467842
08:35:57,68,-2.019974,1.0568682, -3.009841,0.54303485, -4.4255323, 8.467842
08:35:57,69,-2.019974,1.0568682, -3.009841,0.51669866, -4.5380597, 8.465448
08:35:57,70,-2.0216072,1.056999, -3.0092864,0.51669866, -4.5380597, 8.465448
08:35:57,71,-2.0216072,1.056999, -3.0092864,0.6028899, -4.576367, 8.515726
08:35:57,72,-2.0215385,1.0571954, -3.009348,0.6028899, -4.576367, 8.515726
08:35:57,73,-2.0215385,1.0571954, -3.009348,0.63880295, -4.6697407, 8.439112
08:35:57,74,-2.0222974,1.0559771, -3.0088406,0.63880295, -4.6697407, 8.439112
08:35:57,75,-2.0222974,1.0559771, -3.0088406,0.5526117, -4.588338, 8.4965725
08:35:57,76,-2.0223463,1.0560626, -3.0087917,0.5526117, -4.588338, 8.4965725
08:35:57,77,-2.0223463,1.0560626, -3.0087917,0.61964935, -4.588338, 8.434323
08:35:57,78,-2.0235052,1.055906, -3.0082707,0.61964935, -4.588338, 8.434323
08:35:57,79,-2.0235052,1.055906, -3.0082707,0.65077394, -4.674529, 8.419958
08:35:57,80,-2.0267792,1.0556849, -3.007018,0.65077394, -4.674529, 8.419958
08:35:57,81,-2.0267792,1.0556849, -3.007018,0.63162035, -4.720019, 8.393622
08:35:57,82,-2.0301793,1.0541698, -3.0046546,0.63162035, -4.720019, 8.393622
08:35:57,83,-2.0301793,1.0541698, -3.0046546,0.63880295, -4.5476365, 8.470237
08:35:57,84,-2.0301573,1.0542682, -3.004695,0.63880295, -4.5476365, 8.470237
08:35:57,85,-2.0301573,1.0542682, -3.004695,0.5957073, -4.7248073, 8.403199
08:35:57,86,-2.0311766,1.0526682, -3.0041327,0.5957073, -4.7248073, 8.403199
08:35:57,87,-2.0311766,1.0526682, -3.0041327,0.64598554, -4.5500307, 8.4726305
08:35:57,88,-2.0341191,1.0506765, -3.0021796,0.64598554, -4.5500307, 8.4726305
08:35:57,89,-2.0341191,1.0506765, -3.0021796,0.6076783, -4.5332713, 8.427141
08:35:57,90,-2.0341692,1.050903, -3.0021408,0.6076783, -4.5332713, 8.427141
08:35:57,91,-2.0341692,1.050903, -3.0021408,0.65795654, -4.5811553, 8.407988
08:35:57,92,-2.0355928,1.0492224, -3.0007892,0.65795654, -4.5811553, 8.407988
08:35:58,93,-2.0355928,1.0492224, -3.0007892,0.66513914, -4.5811553, 8.467842
08:35:58,94,-2.0362515,1.0490317, -3.0000055,0.66513914, -4.5811553, 8.467842
08:35:58,95,-2.0362515,1.0490317, -3.0000055,0.64837974, -4.7152305, 8.386439
08:35:58,96,-2.0360157,1.0470395, -2.9997396,0.64837974, -4.7152305, 8.386439
08:35:58,97,-2.0360157,1.0470395, -2.9997396,0.66513914, -4.6529813, 8.393622
08:35:58,98,-2.0367484,1.0470738, -2.9992092,0.66513914, -4.6529813, 8.393622
08:35:58,99,-2.0367484,1.0470738, -2.9992092,0.6842928, -4.636222, 8.441506
08:35:58,100,-2.0372605,1.0466526, -2.9991667,0.6842928, -4.636222, 8.441506
08:35:58,101,-2.0372605,1.0466526, -2.9991667,0.66753334, -4.6936827, 8.360104
08:35:58,102,-2.037848,1.0451993, -2.999188,0.66753334, -4.6936827, 8.360104
08:35:58,103,-2.037848,1.0451993, -2.999188,0.6914754, -4.638616, 8.439112
08:35:58,104,-2.0376992,1.0450544, -2.9998178,0.6914754, -4.638616, 8.439112
08:35:58,105,-2.0376992,1.0450544, -2.9998178,0.66513914, -4.662558, 8.403199
08:35:58,106,-2.0380466,1.0448569, -3.0000474,0.66513914, -4.662558, 8.403199
08:35:58,107,-2.0380466,1.0448569, -3.0000474,0.6842928, -4.6673465, 8.4486885
08:35:58,108,-2.0380385,1.0449984, -3.0000484,0.6842928, -4.6673465, 8.4486885
08:35:58,109,-2.0380385,1.0449984, -3.0000484,0.66274494, -4.7295957, 8.36968
08:35:58,110,-2.0387685,1.0434462, -3.000155,0.66274494, -4.7295957, 8.36968
08:35:58,111,-2.0387685,1.0434462, -3.000155,0.61964935, -4.6457987, 8.4439
08:35:58,112,-2.038906,1.0430914, -3.0005317,0.61964935, -4.6457987, 8.4439
08:35:58,113,-2.038906,1.0430914, -3.0005317,0.7082348, -4.7511435, 8.32419
08:35:58,114,-2.039498,1.0416814, -3.0002515,0.7082348, -4.7511435, 8.32419
08:35:58,115,-2.039498,1.0416814, -3.0002515,0.6124667, -4.61228, 8.4008045
08:35:58,116,-2.0395079,1.0417948, -3.000216,0.6124667, -4.61228, 8.4008045
08:35:58,117,-2.0395079,1.0417948, -3.000216,0.66513914, -4.684106, 8.446295
08:35:58,118,-2.0400555,1.0388557, -3.0001159,0.66513914, -4.684106, 8.446295
08:35:58,119,-2.0400555,1.0388557, -3.0001159,0.66035074, -4.588338, 8.384046
08:35:58,120,-2.0397072,1.0389096, -3.000394,0.66035074, -4.588338, 8.384046
08:35:58,121,-2.0397072,1.0389096, -3.000394,0.65077394, -4.7894506, 8.407988
08:35:59,122,-2.0384898,1.0372317, -3.0009382,0.65077394, -4.7894506, 8.407988
08:35:59,123,-2.0384898,1.0372317, -3.0009382,0.63880295, -4.6888943, 8.4008045
08:35:59,124,-2.0384943,1.0373731, -3.0009518,0.63880295, -4.6888943, 8.4008045
08:35:59,125,-2.0384943,1.0373731, -3.0009518,0.65077394, -4.7487493, 8.372074
08:35:59,126,-2.0382895,1.0352886, -3.0015936,0.65077394, -4.7487493, 8.372074
08:35:59,127,-2.0382895,1.0352886, -3.0015936,0.63401455, -4.6577697, 8.453477
08:35:59,128,-2.0383842,1.0349762, -3.001874,0.63401455, -4.6577697, 8.453477
08:35:59,129,-2.0383842,1.0349762, -3.001874,0.66992754, -4.770297, 8.410381
08:35:59,130,-2.0382557,1.0344063, -3.0024807,0.66992754, -4.770297, 8.410381
08:35:59,131,-2.0382557,1.0344063, -3.0024807,0.61725515, -4.6888943, 8.436718
08:35:59,132,-2.0382092,1.0345333, -3.0025456,0.61725515, -4.6888943, 8.436718
08:35:59,133,-2.0382092,1.0345333, -3.0025456,0.63640875, -4.758326, 8.381651
08:35:59,134,-2.0351157,1.0348039, -3.0067391,0.63640875, -4.758326, 8.381651
08:35:59,135,-2.0351157,1.0348039, -3.0067391,0.54782325, -4.6553755, 8.439112
08:35:59,136,-2.0309956,1.0374869, -3.012007,0.54782325, -4.6553755, 8.439112
08:35:59,137,-2.0309956,1.0374869, -3.012007,0.5789479, -4.7272015, 8.360104
08:35:59,138,-2.0286982,1.0386086, -3.016518,0.5789479, -4.7272015, 8.360104
08:35:59,139,-2.0286982,1.0386086, -3.016518,0.52148706, -4.6290393, 8.374469
08:35:59,140,-2.027805,1.040238, -3.018723,0.52148706, -4.6290393, 8.374469
08:35:59,141,-2.027805,1.040238, -3.018723,0.53106385, -4.708048, 8.412776
08:35:59,142,-2.0286856,1.0397342, -3.0205853,0.53106385, -4.708048, 8.412776
08:35:59,143,-2.0286856,1.0397342, -3.0205853,0.61725515, -4.5931263, 8.506149
08:35:59,144,-2.03384,1.0417387, -3.017675,0.61725515, -4.5931263, 8.506149
08:35:59,145,-2.03384,1.0417387, -3.017675,0.5909189, -4.6888943, 8.441506
08:35:59,146,-2.0343585,1.0424353, -3.0195737,0.5909189, -4.6888943, 8.441506
08:35:59,147,-2.0343585,1.0424353, -3.0195737,0.54064065, -4.696077, 8.384046
08:35:59,148,-2.0332654,1.0443648, -3.0212593,0.54064065, -4.696077, 8.384046
08:35:59,149,-2.0332654,1.0443648, -3.0212593,0.5550059, -4.794239, 8.360104
08:36:00,150,-2.0328357,1.0431207, -3.02247,0.5550059, -4.794239, 8.360104
08:36:00,151,-2.0328357,1.0431207, -3.02247,0.5837363, -4.600309, 8.410381
08:36:00,152,-2.0379355,1.0445529, -3.019914,0.5837363, -4.600309, 8.410381
08:36:00,153,-2.0379355,1.0445529, -3.019914,0.5789479, -4.7367783, 8.391228
08:36:00,154,-2.0404618,1.0444378, -3.0187547,0.5789479, -4.7367783, 8.391228
08:36:00,155,-2.0404618,1.0444378, -3.0187547,0.5861305, -4.576367, 8.4008045
08:36:00,156,-2.0417235,1.0447066, -3.0178893,0.5861305, -4.576367, 8.4008045
08:36:00,157,-2.0417235,1.0447066, -3.0178893,0.54064065, -4.720019, 8.419958
08:36:00,158,-2.0441577,1.0447906, -3.0159729,0.54064065, -4.720019, 8.419958
08:36:00,159,-2.0441577,1.0447906, -3.0159729,0.5957073, -4.6434045, 8.419958
08:36:00,160,-2.043939,1.0440085, -3.0164762,0.5957073, -4.6434045, 8.419958
08:36:00,161,-2.043939,1.0440085, -3.0164762,0.5621885, -4.7032595, 8.36968
08:36:00,162,-2.0439537,1.0441926, -3.0164537,0.5621885, -4.7032595, 8.36968
08:36:00,163,-2.0439537,1.0441926, -3.0164537,0.5789479, -4.626645, 8.403199
08:36:00,164,-2.043899,1.0442485, -3.0165086,0.5789479, -4.626645, 8.403199
08:36:00,165,-2.043899,1.0442485, -3.0165086,0.5645827, -4.7272015, 8.386439
08:36:00,166,-2.0461662,1.0444773, -3.015909,0.5645827, -4.7272015, 8.386439
08:36:00,167,-2.0461662,1.0444773, -3.015909,0.5574001, -4.636222, 8.4486885
08:36:00,168,-2.0482965,1.0453075, -3.0162125,0.5574001, -4.636222, 8.4486885
08:36:00,169,-2.0482965,1.0453075, -3.0162125,0.5621885, -4.648193, 8.396016
08:36:00,170,-2.0482748,1.0455579, -3.0169458,0.5621885, -4.648193, 8.396016
08:36:00,171,-2.0482748,1.0455579, -3.0169458,0.5669769, -4.600309, 8.470237
08:36:00,172,-2.048311,1.0456432, -3.0168836,0.5669769, -4.600309, 8.470237
08:36:00,173,-2.048311,1.0456432, -3.0168836,0.49275663, -4.650587, 8.501361
08:36:00,174,-2.047492,1.045986, -3.017933,0.49275663, -4.650587, 8.501361
08:36:00,175,-2.047492,1.045986, -3.017933,0.66992754, -4.6410103, 8.412776
08:36:00,176,-2.051553,1.0494812, -3.0128481,0.66992754, -4.6410103, 8.412776
08:36:00,177,-2.051553,1.0494812, -3.0128481,0.54542905, -4.6769233, 8.506149
08:36:00,178,-2.052566,1.0544574, -3.009263,0.54542905, -4.6769233, 8.506149
08:36:01,179,-2.052566,1.0544574, -3.009263,0.54782325, -4.5979147, 8.486996
08:36:01,180,-2.052183,1.0564518, -3.0078106,0.54782325, -4.5979147, 8.486996
08:36:01,181,-2.052183,1.0564518, -3.0078106,0.48078564, -4.894796, 8.891616
08:36:01,182,-2.0527751,1.0600483, -2.999899,0.48078564, -4.894796, 8.891616
08:36:01,183,-2.0527751,1.0600483, -2.999899,0.95723176, -4.564396, 8.5205145
08:36:01,184,-2.0538695,1.0661641, -2.984882,0.95723176, -4.564396, 8.5205145
08:36:01,185,-2.0538695,1.0661641, -2.984882,0.8734347, -4.2866683, 8.4486885
08:36:01,186,-2.0403347,1.0702872, -2.9855406,0.8734347, -4.2866683, 8.4486885
08:36:01,187,-2.0403347,1.0702872, -2.9855406,0.48317984, -4.734384, 8.575582
08:36:01,188,-2.0391045,1.0671377, -2.9810786,0.48317984, -4.734384, 8.575582
08:36:01,189,-2.0391045,1.0671377, -2.9810786,1.2014403, -4.9618335, 9.226805
08:36:01,190,-2.0834508,1.0481657, -2.916997,1.2014403, -4.9618335, 9.226805
08:36:01,191,-2.0834508,1.0481657, -2.916997,4.3833346, -3.4702458, 10.938659
08:36:01,192,-2.1888506,1.0222025, -2.780365,4.3833346, -3.4702458, 10.938659
08:36:01,193,-2.1888506,1.0222025, -2.780365,4.866963, -2.7448027, 10.984148
08:36:01,194,-2.3660555,1.0697691, -2.5951595,4.866963, -2.7448027, 10.984148
08:36:01,195,-2.3660555,1.0697691, -2.5951595,4.3737574, -1.8302176, 8.309825
08:36:01,196,-2.4732122,1.0918157, -2.5100093,4.3737574, -1.8302176, 8.309825
08:36:01,197,-2.4732122,1.0918157, -2.5100093,3.3993175, -2.3353941, 7.0049853
08:36:01,198,-2.5127037,1.13362, -2.5635128,3.3993175, -2.3353941, 7.0049853
08:36:01,199,-2.5127037,1.13362, -2.5635128,-1.520767, -5.0599957, 9.080758
08:36:01,200,-2.2793734,1.191217, -2.9425695,-1.520767, -5.0599957, 9.080758
08:36:01,201,-2.2793734,1.191217, -2.9425695,-4.6380177, -4.8660655, 8.664167
08:36:01,202,-1.991175,1.1826298, 2.868253,-4.6380177, -4.8660655, 8.664167
08:36:01,203,-1.991175,1.1826298, 2.868253,-6.778434, -5.0671782, 7.8238025
08:36:01,204,-1.9065098,1.1589824, 2.696586,-6.778434, -5.0671782, 7.8238025
08:36:01,205,-1.9065098,1.1589824, 2.696586,-5.21502, -4.482993, 6.732046
08:36:01,206,-1.8266429,1.1266719, 2.514629,-5.21502, -4.482993, 6.732046
08:36:01,207,-1.8266429,1.1266719, 2.514629,-4.345925, -2.881272, 7.1390605
08:36:02,208,-1.8459779,1.0972096, 2.537732,-4.345925, -2.881272, 7.1390605
08:36:02,209,-1.8459779,1.0972096, 2.537732,-4.7577276, -3.616292, 6.499809
08:36:02,210,-1.7748001,1.1081481, 2.5248554,-4.7577276, -3.616292, 6.499809
08:36:02,211,-1.7748001,1.1081481, 2.5248554,-5.394585, -2.761562, 7.8692923
08:36:02,212,-1.7802019,1.1001197, 2.5791435,-5.394585, -2.761562, 7.8692923
08:36:02,213,-1.7802019,1.1001197, 2.5791435,-6.9484224, -5.6537576, 7.6226892
08:36:02,214,-1.9102863,1.0895778, 2.8509178,-6.9484224, -5.6537576, 7.6226892
08:36:02,215,-1.9102863,1.0895778, 2.8509178,-2.7418098, -4.4422917, 8.123077
08:36:02,216,-2.0409682,1.0692513, -3.1266582,-2.7418098, -4.4422917, 8.123077
08:36:02,217,-2.0409682,1.0692513, -3.1266582,0.7034464, -4.3800426, 7.5676227
08:36:02,218,-2.1282196,1.0115573, -2.9131749,0.7034464, -4.3800426, 7.5676227
08:36:02,219,-2.1282196,1.0115573, -2.9131749,3.394529, -2.7256489, 9.169344
08:36:02,220,-2.1646671,0.98702025, -2.8418405,3.394529, -2.7256489, 9.169344
08:36:02,221,-2.1646671,0.98702025, -2.8418405,3.4591725, -3.0201359, 9.708039
08:36:02,222,-2.2130885,0.9754738, -2.7682443,3.4591725, -3.0201359, 9.708039
08:36:02,223,-2.2130885,0.9754738, -2.7682443,4.0529346, -4.1932945, 8.515726
08:36:02,224,-2.242662,0.9347986, -2.7469413,4.0529346, -4.1932945, 8.515726
08:36:02,225,-2.242662,0.9347986, -2.7469413,5.0369515, -1.9810523, 6.341791
08:36:02,226,-2.1931596,0.8635798, -2.817877,5.0369515, -1.9810523, 6.341791
08:36:02,227,-2.1931596,0.8635798, -2.817877,2.491915, -7.712771, 8.029703
08:36:02,228,-2.1843452,0.8991698, -2.8334692,2.491915, -7.712771, 8.029703
08:36:02,229,-2.1843452,0.8991698, -2.8334692,1.3259388, -5.139004, 8.4247465
08:36:02,230,-2.188265,0.92452884, -2.8469014,1.3259388, -5.139004, 8.4247465
08:36:02,231,-2.188265,0.92452884, -2.8469014,1.2421417, -6.2618847, 8.410381
08:36:02,232,-2.1585445,0.90146834, -2.896161,1.2421417, -6.2618847, 8.410381
08:36:02,233,-2.1585445,0.90146834, -2.896161,1.7473184, -7.142951, 7.977031
08:36:02,234,-2.1014965,1.0180238, -2.9584074,1.7473184, -7.142951, 7.977031
08:36:02,235,-2.1014965,1.0180238, -2.9584074,-0.5750573, -6.474969, 10.818949
08:36:03,236,-2.0935998,0.99984795, -2.9682093,-0.5750573, -6.474969, 10.818949
08:36:03,237,-2.0935998,0.99984795, -2.9682093,0.2988263, -4.7535377, 7.617901
08:36:03,238,-2.0757923,0.9960334, -2.9773743,0.2988263, -4.7535377, 7.617901
08:36:03,239,-2.0757923,0.9960334, -2.9773743,-0.15607202, -5.58672, 7.9411182
08:36:03,240,-2.0469565,1.0032492, -2.9946766,-0.15607202, -5.58672, 7.9411182
08:36:03,241,-2.0469565,1.0032492, -2.9946766,0.05940613, -4.825364, 7.9578776
08:36:03,242,-2.03748,0.9975571, -2.9998248,0.05940613, -4.825364, 7.9578776
08:36:03,243,-2.03748,0.9975571, -2.9998248,0.41135377, -4.8756423, 7.644237
08:36:03,244,-2.0335913,0.9951856, -3.0047405,0.41135377, -4.8756423, 7.644237
08:36:03,245,-2.0335913,0.9951856, -3.0047405,0.13362639, -5.1318216, 7.866898
08:36:03,246,-2.021465,0.9954347, -3.021506,0.13362639, -5.1318216, 7.866898
08:36:03,247,-2.021465,0.9954347, -3.021506,0.18869302, -5.636998, 8.508544
08:36:03,248,-2.0116205,1.0000726, -3.0369368,0.18869302, -5.636998, 8.508544
08:36:03,249,-2.0116205,1.0000726, -3.0369368,0.41135377, -5.1557636, 8.345738
08:36:03,250,-2.0098379,0.99887484, -3.0419304,0.41135377, -5.1557636, 8.345738
08:36:03,251,-2.0098379,0.99887484, -3.0419304,0.50951606, -5.431097, 8.305037
08:36:03,252,-2.0073147,1.0001677, -3.0450287,0.50951606, -5.431097, 8.305037
08:36:03,253,-2.0073147,1.0001677, -3.0450287,0.119261175, -5.5340476, 8.297854
08:36:03,254,-2.002653,0.9991275, -3.0504498,0.119261175, -5.5340476, 8.297854
08:36:03,255,-2.002653,0.9991275, -3.0504498,0.22700025, -5.174917, 7.9099936
08:36:03,256,-1.9949003,0.9958079, -3.0583704,0.22700025, -5.174917, 7.9099936
08:36:03,257,-1.9949003,0.9958079, -3.0583704,0.1743278, -5.4023666, 8.297854
08:36:03,258,-1.9885111,0.9959695, -3.0633128,0.1743278, -5.4023666, 8.297854
08:36:03,259,-1.9885111,0.9959695, -3.0633128,0.33473933, -5.2132244, 8.276306
08:36:03,260,-1.9898853,0.9920236, -3.0610223,0.33473933, -5.2132244, 8.276306
08:36:03,261,-1.9898853,0.9920236, -3.0610223,0.10250176, -5.289839, 8.139837
08:36:03,262,-1.9881604,0.99137133, -3.061726,0.10250176, -5.289839, 8.139837
08:36:03,263,-1.9881604,0.99137133, -3.061726,0.1503858, -4.9953523, 7.7471876
08:36:03,264,-1.9867721,0.98901474, -3.0641985,0.1503858, -4.9953523, 7.7471876
08:36:04,265,-1.9867721,0.98901474, -3.0641985,0.23178865, -5.3975782, 8.158991
08:36:04,266,-1.9858204,0.9875512, -3.0660224,0.23178865, -5.3975782, 8.158991
08:36:04,267,-1.9858204,0.9875512, -3.0660224,0.28685528, -5.270685, 7.948301
08:36:04,268,-1.9843992,0.9871626, -3.0684035,0.28685528, -5.270685, 7.948301
08:36:04,269,-1.9843992,0.9871626, -3.0684035,0.17911622, -5.517288, 8.434323
08:36:04,270,-1.9819992,0.9873483, -3.0719552,0.17911622, -5.517288, 8.434323
08:36:04,271,-1.9819992,0.9873483, -3.0719552,0.25573066, -5.3544827, 7.9937906
08:36:04,272,-1.9819921,0.9851117, -3.0727665,0.25573066, -5.3544827, 7.9937906
08:36:04,273,-1.9819921,0.9851117, -3.0727665,0.18629882, -5.21083, 8.147019
08:36:04,274,-1.9817286,0.9851983, -3.0730484,0.18629882, -5.21083, 8.147019
08:36:04,275,-1.9817286,0.9851983, -3.0730484,0.21263504, -5.162946, 7.9674544
08:36:04,276,-1.9803559,0.98427397, -3.0748823,0.21263504, -5.162946, 7.9674544
08:36:04,277,-1.9803559,0.98427397, -3.0748823,0.24136546, -5.122245, 8.063223
08:36:04,278,-1.9800466,0.9844149, -3.0752282,0.24136546, -5.122245, 8.063223
08:36:04,279,-1.9800466,0.9844149, -3.0752282,0.20784664, -4.978593, 7.9818196
08:36:04,280,-1.980475,0.9817968, -3.0750718,0.20784664, -4.978593, 7.9818196
08:36:04,281,-1.980475,0.9817968, -3.0750718,0.25094226, -5.344906, 7.9698486
08:36:04,282,-1.9801977,0.9819814, -3.075412,0.25094226, -5.344906, 7.9698486
08:36:04,283,-1.9801977,0.9819814, -3.075412,0.25812486, -5.2635026, 8.017733
08:36:04,284,-1.9791989,0.98134667, -3.0768306,0.25812486, -5.2635026, 8.017733
08:36:04,285,-1.9791989,0.98134667, -3.0768306,0.20305823, -5.2275896, 8.149414
08:36:04,286,-1.9789937,0.9815205, -3.0770988,0.20305823, -5.2275896, 8.149414
08:36:04,287,-1.9789937,0.9815205, -3.0770988,0.18390462, -5.344906, 8.178144
08:36:04,288,-1.9724056,0.98268783, -3.0835104,0.18390462, -5.344906, 8.178144
08:36:04,289,-1.9724056,0.98268783, -3.0835104,0.13123219, -5.2036476, 8.063223
08:36:04,290,-1.9662502,0.9832758, -3.0897498,0.13123219, -5.2036476, 8.063223
08:36:04,291,-1.9662502,0.9832758, -3.0897498,0.09053075, -5.270685, 8.113501
08:36:04,292,-1.9661787,0.98340076, -3.0898137,0.09053075, -5.270685, 8.113501
08:36:05,293,-1.9661787,0.98340076, -3.0898137,0.14320318, -5.3065987, 8.08477
08:36:05,294,-1.9645365,0.9830311, -3.0918863,0.14320318, -5.3065987, 8.08477
08:36:05,295,-1.9645365,0.9830311, -3.0918863,0.07855974, -5.2132244, 8.077588
08:36:05,296,-1.9637123,0.98282206, -3.0927444,0.07855974, -5.2132244, 8.077588
08:36:05,297,-1.9637123,0.98282206, -3.0927444,0.1719336, -5.2275896, 8.029703
08:36:05,298,-1.9634445,0.9829765, -3.093049,0.1719336, -5.2275896, 8.029703
08:36:05,299,-1.9634445,0.9829765, -3.093049,0.11447277, -5.1916766, 8.087165
08:36:05,300,-1.9626037,0.98216784, -3.0942547,0.11447277, -5.1916766, 8.087165
08:36:05,301,-1.9626037,0.98216784, -3.0942547,0.1455974, -5.2132244, 8.123077
08:36:05,302,-1.9624246,0.98235625, -3.0944705,0.1455974, -5.2132244, 8.123077
08:36:05,303,-1.9624246,0.98235625, -3.0944705,0.11686697, -5.253926, 8.053645
08:36:05,304,-1.962068,0.9820188, -3.0952764,0.11686697, -5.253926, 8.053645
08:36:05,305,-1.962068,0.9820188, -3.0952764,0.124049574, -5.253926, 8.13026
08:36:05,306,-1.9614458,0.9819919, -3.095969,0.124049574, -5.253926, 8.13026
08:36:05,307,-1.9614458,0.9819919, -3.095969,0.16235681, -5.241955, 8.135049
08:36:05,308,-1.9613833,0.98207253, -3.096076,0.16235681, -5.241955, 8.135049
08:36:05,309,-1.9613833,0.98207253, -3.096076,0.1455974, -5.25632, 8.058434
08:36:05,310,-1.9612067,0.98218995, -3.0962708,0.1455974, -5.25632, 8.058434
08:36:05,311,-1.9612067,0.98218995, -3.0962708,0.1695394, -5.222801, 8.048857
08:36:05,312,-1.9606577,0.9818393, -3.097729,0.1695394, -5.222801, 8.048857
08:36:05,313,-1.9606577,0.9818393, -3.097729,0.10250176, -5.2251954, 8.05604
08:36:05,314,-1.9604495,0.98205423, -3.0979738,0.10250176, -5.2251954, 8.05604
08:36:05,315,-1.9604495,0.98205423, -3.0979738,0.10968436, -5.220407, 8.079982
08:36:05,316,-1.9602851,0.9821006, -3.0981565,0.10968436, -5.220407, 8.079982
08:36:05,317,-1.9602851,0.9821006, -3.0981565,0.1743278, -5.206042, 8.044068
08:36:05,318,-1.9601617,0.98223495, -3.0983167,0.1743278, -5.206042, 8.044068
08:36:05,319,-1.9601617,0.98223495, -3.0983167,0.10250176, -5.2156186, 8.058434
08:36:05,320,-1.9622394,0.982131, -3.0978036,0.10250176, -5.2156186, 8.058434
08:36:05,321,-1.9622394,0.982131, -3.0978036,0.20066403, -5.3257523, 8.187721
08:36:06,322,-1.9644096,0.981992, -3.0975616,0.20066403, -5.3257523, 8.187721
08:36:06,323,-1.9644096,0.981992, -3.0975616,0.12644377, -5.2635026, 8.127866
08:36:06,324,-1.9653393,0.9820113, -3.0974104,0.12644377, -5.2635026, 8.127866
08:36:06,325,-1.9653393,0.9820113, -3.0974104,0.1575684, -5.2156186, 8.115895
08:36:06,326,-1.966396,0.9819598, -3.097362,0.1575684, -5.2156186, 8.115895
08:36:06,327,-1.966396,0.9819598, -3.097362,0.14080898, -5.268291, 8.05604
08:36:06,328,-1.9662199,0.98207724, -3.0975566,0.14080898, -5.268291, 8.05604
08:36:06,329,-1.9662199,0.98207724, -3.0975566,0.13123219, -5.198859, 8.027309
08:36:06,330,-1.9659804,0.9818965, -3.09806,0.13123219, -5.198859, 8.027309
08:36:06,331,-1.9659804,0.9818965, -3.09806,0.18869302, -5.2036476, 8.032098
08:36:06,332,-1.9658606,0.98196, -3.098198,0.18869302, -5.2036476, 8.032098
08:36:06,333,-1.9658606,0.98196, -3.098198,0.1479916, -5.2251954, 8.08477
08:36:06,334,-1.9665937,0.98197204, -3.098084,0.1479916, -5.2251954, 8.08477
08:36:06,335,-1.9665937,0.98197204, -3.098084,0.20066403, -5.258714, 8.089559
08:36:06,336,-1.9672812,0.98191315, -3.0979006,0.20066403, -5.258714, 8.089559
08:36:06,337,-1.9672812,0.98191315, -3.0979006,0.19108722, -5.258714, 8.099135
08:36:06,338,-1.9673905,0.98159784, -3.098471,0.19108722, -5.258714, 8.099135
08:36:06,339,-1.9673905,0.98159784, -3.098471,0.12883797, -5.244349, 8.106318
08:36:06,340,-1.9673594,0.98169565, -3.09852,0.12883797, -5.244349, 8.106318
08:36:06,341,-1.9673594,0.98169565, -3.09852,0.18151042, -5.2132244, 7.9554834
08:36:06,342,-1.9682435,0.98105913, -3.0981984,0.18151042, -5.2132244, 7.9554834
08:36:06,343,-1.9682435,0.98105913, -3.0981984,0.19348143, -5.1821, 8.034492
08:36:06,344,-1.9681816,0.9812549, -3.0982966,0.19348143, -5.1821, 8.034492
08:36:06,345,-1.9681816,0.9812549, -3.0982966,0.1479916, -5.265897, 8.118289
08:36:06,346,-1.9684927,0.98114717, -3.0983827,0.1479916, -5.265897, 8.118289
08:36:06,347,-1.9684927,0.98114717, -3.0983827,0.20784664, -5.229984, 8.03928
08:36:06,348,-1.9685181,0.9811912, -3.0983756,0.20784664, -5.229984, 8.03928
08:36:06,349,-1.9685181,0.9811912, -3.0983756,0.20066403, -5.229984, 8.063223
08:36:07,350,-1.9684341,0.98138696, -3.0984516,0.20066403, -5.229984, 8.063223
08:36:07,351,-1.9684341,0.98138696, -3.0984516,0.1719336, -5.2994156, 8.103924
08:36:07,352,-1.9686182,0.981184, -3.0987093,0.1719336, -5.2994156, 8.103924
08:36:07,353,-1.9686182,0.981184, -3.0987093,0.11207857, -5.2132244, 8.132654
08:36:07,354,-1.9691641,0.98112744, -3.0987644,0.11207857, -5.2132244, 8.132654
08:36:07,355,-1.9691641,0.98112744, -3.0987644,0.21263504, -5.1797056, 8.094347
08:36:07,356,-1.9699879,0.98127836, -3.0984108,0.21263504, -5.1797056, 8.094347
08:36:07,357,-1.9699879,0.98127836, -3.0984108,0.19826983, -5.258714, 8.108712
08:36:07,358,-1.9699322,0.9814471, -3.0984585,0.19826983, -5.258714, 8.108712
08:36:07,359,-1.9699322,0.9814471, -3.0984585,0.20066403, -5.3161755, 8.120684
08:36:07,360,-1.9707344,0.9810329, -3.0982733,0.20066403, -5.3161755, 8.120684
08:36:07,361,-1.9707344,0.9810329, -3.0982733,0.1743278, -5.2012534, 8.089559
08:36:07,362,-1.9715406,0.98071647, -3.0981731,0.1743278, -5.2012534, 8.089559
08:36:07,363,-1.9715406,0.98071647, -3.0981731,0.1743278, -5.265897, 8.154202
08:36:07,364,-1.9721938,0.98064977, -3.0981913,0.1743278, -5.265897, 8.154202
08:36:07,365,-1.9721938,0.98064977, -3.0981913,0.20305823, -5.2156186, 8.063223
08:36:07,366,-1.9721608,0.9808187, -3.0982609,0.20305823, -5.2156186, 8.063223
08:36:07,367,-1.9721608,0.9808187, -3.0982609,0.1551742, -5.323358, 8.223634
08:36:07,368,-1.971832,0.9823117, -3.0988016,0.1551742, -5.323358, 8.223634
08:36:07,369,-1.971832,0.9823117, -3.0988016,-0.062698156, -5.3377233, 8.345738
08:36:07,370,-1.9754521,0.9829912, -3.0945044,-0.062698156, -5.3377233, 8.345738
08:36:07,371,-1.9754521,0.9829912, -3.0945044,0.55021745, -5.2994156, 7.852533
08:36:07,372,-1.9797845,0.98118156, -3.0889225,0.55021745, -5.2994156, 7.852533
08:36:07,373,-1.9797845,0.98118156, -3.0889225,0.23178865, -5.3042045, 8.106318
08:36:07,374,-1.9799156,0.98197293, -3.0894334,0.23178865, -5.3042045, 8.106318
08:36:07,375,-1.9799156,0.98197293, -3.0894334,-0.10818799, -5.6872764, 8.915558
08:36:07,376,-1.9856434,0.9862221, -3.0817583,-0.10818799, -5.6872764, 8.915558
08:36:07,377,-1.9856434,0.9862221, -3.0817583,0.28446108, -6.4701805, 9.940276
08:36:07,378,-2.0054438,0.988745, -3.047575,0.28446108, -6.4701805, 9.940276
08:36:08,379,-2.0054438,0.988745, -3.047575,3.0377932, -4.2028713, 9.210045
08:36:08,380,-2.0655816,0.9623524, -2.923929,3.0377932, -4.2028713, 9.210045
08:36:08,381,-2.0655816,0.9623524, -2.923929,6.372916, -5.574749, 11.216386
08:36:08,382,-2.1487753,0.94843006, -2.747737,6.372916, -5.574749, 11.216386
08:36:08,383,-2.1487753,0.94843006, -2.747737,5.5445223, -4.3704658, 8.151808
08:36:08,384,-2.3289607,0.99438024, -2.5150824,5.5445223, -4.3704658, 8.151808
08:36:08,385,-2.3289607,0.99438024, -2.5150824,5.4774847, -3.5947442, 5.2189107
08:36:08,386,-2.3798532,1.0238725, -2.4567122,5.4774847, -3.5947442, 5.2189107
08:36:08,387,-2.3798532,1.0238725, -2.4567122,1.7090111, -2.8501475, 5.8749223
08:36:08,388,-2.3632643,1.1331792, -2.506931,1.7090111, -2.8501475, 5.8749223
08:36:08,389,-2.3632643,1.1331792, -2.506931,-2.579004, -2.9722517, 6.966678
08:36:08,390,-2.0088272,1.2194688, -2.9672832,-2.579004, -2.9722517, 6.966678
08:36:08,391,-2.0088272,1.2194688, -2.9672832,-7.8462477, -4.1310453, 9.250747
08:36:08,392,-1.6673499,1.1754186, 2.8373382,-7.8462477, -4.1310453, 9.250747
08:36:08,393,-1.6673499,1.1754186, 2.8373382,-5.844695, -4.212448, 7.6107183
08:36:08,394,-1.6099417,1.1439272, 2.7211623,-5.844695, -4.212448, 7.6107183
08:36:08,395,-1.6099417,1.1439272, 2.7211623,-3.6109052, -3.223643, 7.7591586
08:36:08,396,-1.5460035,1.1057911, 2.5974748,-3.6109052, -3.223643, 7.7591586
08:36:08,397,-1.5460035,1.1057911, 2.5974748,-4.202273, -2.701707, 7.03611
08:36:08,398,-1.4819964,1.0924754, 2.5362437,-4.202273, -2.701707, 7.03611
08:36:08,399,-1.4819964,1.0924754, 2.5362437,-3.5582325, -1.9858407, 8.393622
08:36:08,400,-1.4353945,1.0953252, 2.5153182,-3.5582325, -1.9858407, 8.393622
08:36:08,401,-1.4353945,1.0953252, 2.5153182,-4.130447, -3.0440779, 9.126248
08:36:08,402,-1.4348534,1.0915704, 2.5374432,-4.130447, -3.0440779, 9.126248
08:36:08,403,-1.4348534,1.0915704, 2.5374432,-5.238962, -4.233996, 9.777471
08:36:08,404,-1.4536716,1.089256, 2.6379392,-5.238962, -4.233996, 9.777471
08:36:08,405,-1.4536716,1.089256, 2.6379392,-2.5981576, -5.2635026, 7.6274776
08:36:08,406,-1.5635037,1.1071075, 2.8753977,-2.5981576, -5.2635026, 7.6274776
08:36:08,407,-1.5635037,1.1071075, 2.8753977,0.19348143, -4.0735846, 6.370522
08:36:09,408,-1.6655729,1.1363904, 3.0992932,0.19348143, -4.0735846, 6.370522
08:36:09,409,-1.6655729,1.1363904, 3.0992932,-0.5942109, -3.580379, 8.168568
08:36:09,410,-1.7383314,1.1285588, -3.065104,-0.5942109, -3.580379, 8.168568
08:36:09,411,-1.7383314,1.1285588, -3.065104,1.8550574, -4.9139495, 9.46383
08:36:09,412,-1.8711089,1.0244901, -2.9007437,1.8550574, -4.9139495, 9.46383
08:36:09,413,-1.8711089,1.0244901, -2.9007437,5.1949687, -3.3936312, 8.065617
08:36:09,414,-1.9929426,0.92733556, -2.8011293,5.1949687, -3.3936312, 8.065617
08:36:09,415,-1.9929426,0.92733556, -2.8011293,5.3338323, -4.8301525, 6.7607765
08:36:09,416,-2.066013,0.8262512, -2.7939637,5.3338323, -4.8301525, 6.7607765
08:36:09,417,-2.066013,0.8262512, -2.7939637,4.8932996, -4.4398975, 7.206098
08:36:09,418,-2.0828285,0.80795807, -2.812585,4.8932996, -4.4398975, 7.206098
08:36:09,419,-2.0828285,0.80795807, -2.812585,2.6595092, -8.07669, 8.920346
08:36:09,420,-2.100711,0.7905114, -2.8666708,2.6595092, -8.07669, 8.920346
08:36:09,421,-2.100711,0.7905114, -2.8666708,1.1846809, -5.7399487, 8.757541
08:36:09,422,-2.1098304,0.8320262, -2.908626,1.1846809, -5.7399487, 8.757541
08:36:09,423,-2.1098304,0.8320262, -2.908626,1.0458173, -6.2618847, 8.384046
08:36:09,424,-2.1087015,0.8969041, -2.9307632,1.0458173, -6.2618847, 8.384046
08:36:09,425,-2.1087015,0.8969041, -2.9307632,0.9883564, -5.830929, 8.429535
08:36:09,426,-2.097242,0.9224595, -2.93873,0.9883564, -5.830929, 8.429535
08:36:09,427,-2.097242,0.9224595, -2.93873,0.62922615, -4.9402857, 7.4431243
08:36:09,428,-2.0554457,0.95427555, -2.9621832,0.62922615, -4.9402857, 7.4431243
08:36:09,429,-2.0554457,0.95427555, -2.9621832,0.92131877, -5.0576015, 6.0904
08:36:09,430,-1.9853501,0.93667036, -3.020777,0.92131877, -5.0576015, 6.0904
08:36:09,431,-1.9853501,0.93667036, -3.020777,0.21742344, -8.081478, 9.849297
08:36:09,432,-1.8966646,0.9659314, -3.0995824,0.21742344, -8.081478, 9.849297
08:36:09,433,-1.8966646,0.9659314, -3.0995824,-1.2406454, -5.064784, 9.035268
08:36:09,434,-1.8800879,0.9849709, -3.1142592,-1.2406454, -5.064784, 9.035268
08:36:09,435,-1.8800879,0.9849709, -3.1142592,0.16714521, -5.4741926, 7.4790373
08:36:10,436,-1.8831501,0.9864021, -3.1184888,0.16714521, -5.4741926, 7.4790373
08:36:10,437,-1.8831501,0.9864021, -3.1184888,0.0043394906, -4.9642277, 8.376863
08:36:10,438,-1.8857758,0.9991344, -3.1218584,0.0043394906, -4.9642277, 8.376863
08:36:10,439,-1.8857758,0.9991344, -3.1218584,-0.120159, -5.2036476, 8.321796
08:36:10,440,-1.8930123,0.9961347, -3.1203043,-0.120159, -5.2036476, 8.321796
08:36:10,441,-1.8930123,0.9961347, -3.1203043,-0.045938745, -4.9115553, 8.012944
08:36:10,442,-1.8959439,0.9955451, -3.1193347,-0.045938745, -4.9115553, 8.012944
08:36:10,443,-1.8959439,0.9955451, -3.1193347,-0.10100538, -5.186888, 8.199692
08:36:10,444,-1.8983729,0.9964656, -3.1188185,-0.10100538, -5.186888, 8.199692
08:36:10,445,-1.8983729,0.9964656, -3.1188185,-0.02439093, -5.2156186, 8.094347
08:36:10,446,-1.9005059,0.99511975, -3.1188226,-0.02439093, -5.2156186, 8.094347
08:36:10,447,-1.9005059,0.99511975, -3.1188226,-0.0028431145, -5.0935144, 7.984214
08:36:10,448,-1.9025491,0.99466795, -3.1196713,-0.0028431145, -5.0935144, 7.984214
08:36:10,449,-1.9025491,0.99466795, -3.1196713,-0.050727148, -5.222801, 8.170961
08:36:10,450,-1.9035983,0.995035, -3.1198814,-0.050727148, -5.222801, 8.170961
08:36:10,451,-1.9035983,0.995035, -3.1198814,0.03067571, -5.1533694, 8.032098
08:36:10,452,-1.9062394,0.9950549, -3.119035,0.03067571, -5.1533694, 8.032098
08:36:10,453,-1.9062394,0.9950549, -3.119035,0.04743512, -5.1797056, 8.068011
08:36:10,454,-1.906463,0.99793065, -3.1195881,0.04743512, -5.1797056, 8.068011
08:36:10,455,-1.906463,0.99793065, -3.1195881,0.0163105, -5.1294274, 8.156596
08:36:10,456,-1.9049053,1.0025667, -3.1218889,0.0163105, -5.1294274, 8.156596
08:36:10,457,-1.9049053,1.0025667, -3.1218889,-0.03875614, -5.0169, 8.142231
08:36:10,458,-1.9046808,1.0045463, -3.1224098,-0.03875614, -5.0169, 8.142231
08:36:10,459,-1.9046808,1.0045463, -3.1224098,0.05701193, -5.06239, 8.216452
08:36:10,460,-1.9076686,1.0062939, -3.1203864,0.05701193, -5.06239, 8.216452
08:36:10,461,-1.9076686,1.0062939, -3.1203864,0.025887307, -5.112668, 8.305037
08:36:10,462,-1.9075228,1.0064687, -3.1205254,0.025887307, -5.112668, 8.305037
08:36:10,463,-1.9075228,1.0064687, -3.1205254,0.009127894, -5.0216885, 8.223634
08:36:10,464,-1.897816,1.0082085, -3.1288323,0.009127894, -5.0216885, 8.223634
08:36:11,465,-1.897816,1.0082085, -3.1288323,-0.08664017, -5.026477, 8.206875
08:36:11,466,-1.8924698,1.009533, -3.1333659,-0.08664017, -5.026477, 8.206875
08:36:11,467,-1.8924698,1.009533, -3.1333659,-0.04833295, -5.0001407, 8.17575
08:36:11,468,-1.885349,1.0109537, -3.1405377,-0.04833295, -5.0001407, 8.17575
08:36:11,469,-1.885349,1.0109537, -3.1405377,-0.1249474, -4.933103, 8.149414
08:36:11,470,-1.8815709,1.0110807, 3.1365325,-0.1249474, -4.933103, 8.149414
08:36:11,471,-1.8815709,1.0110807, 3.1365325,-0.16086042, -4.9953523, 8.237999
08:36:11,472,-1.8808179,1.0110407, 3.1335497,-0.16086042, -4.9953523, 8.237999
08:36:11,473,-1.8808179,1.0110407, 3.1335497,-0.10579379, -5.014506, 8.182933
08:36:11,474,-1.8809597,1.0108954, 3.133094,-0.10579379, -5.014506, 8.182933
08:36:11,475,-1.8809597,1.0108954, 3.133094,-0.17043723, -5.100697, 8.372074
08:36:11,476,-1.8801146,1.0108308, 3.1317725,-0.17043723, -5.100697, 8.372074
08:36:11,477,-1.8801146,1.0108308, 3.1317725,-0.08185177, -5.110274, 8.182933
08:36:11,478,-1.8805832,1.0088608, 3.1316907,-0.08185177, -5.110274, 8.182933
08:36:11,479,-1.8805832,1.0088608, 3.1316907,-0.09142858, -5.040842, 8.384046
08:36:11,480,-1.8801502,1.0076883, 3.1308827,-0.09142858, -5.040842, 8.384046
08:36:11,481,-1.8801502,1.0076883, 3.1308827,-0.120159, -5.115062, 8.240394
08:36:11,482,-1.8800929,1.0077838, 3.1308327,-0.120159, -5.115062, 8.240394
08:36:11,483,-1.8800929,1.0077838, 3.1308327,-0.13452421, -5.0240827, 8.24997
08:36:11,484,-1.8786652,1.0071678, 3.1286452,-0.13452421, -5.0240827, 8.24997
08:36:11,485,-1.8786652,1.0071678, 3.1286452,-0.1249474, -4.9857755, 8.123077
08:36:11,486,-1.8784764,1.0072765, 3.128419,-0.1249474, -4.9857755, 8.123077
08:36:11,487,-1.8784764,1.0072765, 3.128419,-0.18001404, -5.127033, 8.218845
08:36:11,488,-1.8783336,1.0074486, 3.1282575,-0.18001404, -5.127033, 8.218845
08:36:11,489,-1.8783336,1.0074486, 3.1282575,-0.17761984, -5.0216885, 8.17575
08:36:11,490,-1.8782213,1.0075506, 3.1281083,-0.17761984, -5.0216885, 8.17575
08:36:11,491,-1.8782213,1.0075506, 3.1281083,-0.1273416, -4.9738045, 8.235605
08:36:11,492,-1.8780092,1.0077736, 3.1278849,-0.1273416, -4.9738045, 8.235605
08:36:12,493,-1.8780092,1.0077736, 3.1278849,-0.20395605, -4.954651, 8.158991
08:36:12,494,-1.8782128,1.007469, 3.1273687,-0.20395605, -4.954651, 8.158991
08:36:12,495,-1.8782128,1.007469, 3.1273687,-0.16804303, -5.0169, 8.24997
08:36:12,496,-1.8786017,1.0075201, 3.126849,-0.16804303, -5.0169, 8.24997
08:36:12,497,-1.8786017,1.0075201, 3.126849,-0.20874447, -5.0097175, 8.142231
08:36:12,498,-1.8799002,1.0069968, 3.1271656,-0.20874447, -5.0097175, 8.142231
08:36:12,499,-1.8799002,1.0069968, 3.1271656,-0.17283143, -5.0312653, 8.199692
08:36:12,500,-1.8813623,1.0067471, 3.1267514,-0.17283143, -5.0312653, 8.199692
08:36:12,501,-1.8813623,1.0067471, 3.1267514,-0.19677345, -4.9594393, 8.173356
08:36:12,502,-1.8816864,1.0066212, 3.1256573,-0.19677345, -4.9594393, 8.173356
08:36:12,503,-1.8816864,1.0066212, 3.1256573,-0.20156185, -5.0240827, 8.187721
08:36:12,504,-1.8815764,1.0067679, 3.1255288,-0.20156185, -5.0240827, 8.187721
08:36:12,505,-1.8815764,1.0067679, 3.1255288,-0.17761984, -5.0911202, 8.254759
08:36:12,506,-1.8814862,1.0068887, 3.1254458,-0.17761984, -5.0911202, 8.254759
08:36:12,507,-1.8814862,1.0068887, 3.1254458,-0.17522563, -5.0935144, 8.197298
08:36:12,508,-1.8817624,1.0061456, 3.1250246,-0.17522563, -5.0935144, 8.197298
08:36:12,509,-1.8817624,1.0061456, 3.1250246,-0.17043723, -5.028871, 8.13026
08:36:12,510,-1.8816178,1.0062732, 3.1248426,-0.17043723, -5.028871, 8.13026
08:36:12,511,-1.8816178,1.0062732, 3.1248426,-0.17283143, -5.0312653, 8.266729
08:36:12,512,-1.8814404,1.0064262, 3.1246283,-0.17283143, -5.0312653, 8.266729
08:36:12,513,-1.8814404,1.0064262, 3.1246283,-0.17043723, -4.954651, 8.118289
08:36:12,514,-1.8818395,1.0059117, 3.1240451,-0.17043723, -4.954651, 8.118289
08:36:12,515,-1.8818395,1.0059117, 3.1240451,-0.15367782, -5.0791492, 8.257153
08:36:12,516,-1.8817606,1.0060772, 3.1239736,-0.15367782, -5.0791492, 8.257153
08:36:12,517,-1.8817606,1.0060772, 3.1239736,-0.18719664, -5.038448, 8.242787
08:36:12,518,-1.8817255,1.0063139, 3.1227195,-0.18719664, -5.038448, 8.242787
08:36:12,519,-1.8817255,1.0063139, 3.1227195,-0.14888942, -4.9594393, 8.17575
08:36:12,520,-1.8816518,1.0064925, 3.1223354,-0.14888942, -4.9594393, 8.17575
08:36:12,521,-1.8816518,1.0064925, 3.1223354,-0.17043723, -4.969016, 8.233211
08:36:13,522,-1.8818105,1.006327, 3.1223278,-0.17043723, -4.969016, 8.233211
08:36:13,523,-1.8818105,1.006327, 3.1223278,-0.16564883, -5.0240827, 8.178144
08:36:13,524,-1.8818575,1.0060735, 3.1218393,-0.16564883, -5.0240827, 8.178144
08:36:13,525,-1.8818575,1.0060735, 3.1218393,-0.16086042, -5.0432363, 8.22124
08:36:13,526,-1.8831512,1.005938, 3.1221209,-0.16086042, -5.0432363, 8.22124
08:36:13,527,-1.8831512,1.005938, 3.1221209,-0.115370594, -4.9953523, 8.154202
08:36:13,528,-1.8830502,1.0060844, 3.121983,-0.115370594, -4.9953523, 8.154202
08:36:13,529,-1.8830502,1.0060844, 3.121983,-0.13452421, -5.0360537, 8.142231
08:36:13,530,-1.8843136,1.0056303, 3.122836,-0.13452421, -5.0360537, 8.142231
08:36:13,531,-1.8843136,1.0056303, 3.122836,-0.19916765, -4.9714103, 8.283489
08:36:13,532,-1.8841478,1.0058278, 3.1226335,-0.19916765, -4.9714103, 8.283489
08:36:13,533,-1.8841478,1.0058278, 3.1226335,-0.11058219, -5.0432363, 8.237999
08:36:13,534,-1.885145,1.0059773, 3.123435,-0.11058219, -5.0432363, 8.237999
08:36:13,535,-1.885145,1.0059773, 3.123435,-0.09382278, -5.0121117, 8.180538
08:36:13,536,-1.8861613,1.0053275, 3.1232579,-0.09382278, -5.0121117, 8.180538
08:36:13,537,-1.8861613,1.0053275, 3.1232579,-0.14170681, -5.0719666, 8.209269
08:36:13,538,-1.8862463,1.0053598, 3.1229548,-0.14170681, -5.0719666, 8.209269
08:36:13,539,-1.8862463,1.0053598, 3.1229548,-0.14649522, -5.076755, 8.158991
08:36:13,540,-1.8859034,1.0050561, 3.1224382,-0.14649522, -5.076755, 8.158991
08:36:13,541,-1.8859034,1.0050561, 3.1224382,-0.14649522, -4.992958, 8.096742
08:36:13,542,-1.8849812,1.0037942, 3.1215448,-0.14649522, -4.992958, 8.096742
08:36:13,543,-1.8849812,1.0037942, 3.1215448,-0.07466917, -5.13661, 8.214057
08:36:13,544,-1.8784484,1.0055115, 3.1153493,-0.07466917, -5.13661, 8.214057
08:36:13,545,-1.8784484,1.0055115, 3.1153493,-0.17283143, -5.0073233, 8.17575
08:36:13,546,-1.8740128,1.0060117, 3.1113498,-0.17283143, -5.0073233, 8.17575
08:36:13,547,-1.8740128,1.0060117, 3.1113498,-0.32845455, -5.0192943, 8.199692
08:36:13,548,-1.8622108,1.0066779, 3.1021962,-0.32845455, -5.0192943, 8.199692
08:36:13,549,-1.8622108,1.0066779, 3.1021962,-0.20156185, -5.0959086, 8.216452
08:36:14,550,-1.8477275,1.0088426, 3.0915275,-0.20156185, -5.0959086, 8.216452
08:36:14,551,-1.8477275,1.0088426, 3.0915275,-0.5104139, -5.234772, 9.564387
08:36:14,552,-1.8471297,1.0026221, 3.1027963,-0.5104139, -5.234772, 9.564387
08:36:14,553,-1.8471297,1.0026221, 3.1027963,-0.21113867, -8.112603, 11.060763
08:36:14,554,-1.8731453,1.0048362, -3.1273792,-0.21113867, -8.112603, 11.060763
08:36:14,555,-1.8731453,1.0048362, -3.1273792,5.5804353, -6.960992, 9.09273
08:36:14,556,-1.967473,0.9299776, -2.910628,5.5804353, -6.960992, 9.09273
08:36:14,557,-1.967473,0.9299776, -2.910628,6.538116, -4.4782047, 7.0935707
08:36:14,558,-1.9815682,0.96864676, -2.7136476,6.538116, -4.4782047, 7.0935707
08:36:14,559,-1.9815682,0.96864676, -2.7136476,7.062446, -7.068731, 6.3777046
08:36:14,560,-1.954586,1.0133039, -2.5450847,7.062446, -7.068731, 6.3777046
08:36:14,561,-1.954586,1.0133039, -2.5450847,4.854992, -3.7192428, 4.605995
08:36:14,562,-1.9255486,1.0500737, -2.503659,4.854992, -3.7192428, 4.605995
08:36:14,563,-1.9255486,1.0500737, -2.503659,2.7361236, -2.8118403, 7.9411182
08:36:14,564,-1.8014147,1.164644, -2.582209,2.7361236, -2.8118403, 7.9411182
08:36:14,565,-1.8014147,1.164644, -2.582209,-4.788852, -2.2468088, 8.276306
08:36:14,566,-1.3445585,1.2890062, -3.107888,-4.788852, -2.2468088, 8.276306
08:36:14,567,-1.3445585,1.2890062, -3.107888,-7.403321, -2.8142345, 7.000197
08:36:14,568,-0.9860809,1.268451, 2.7251103,-7.403321, -2.8142345, 7.000197
08:36:14,569,-0.9860809,1.268451, 2.7251103,-4.982783, -1.6410756, 7.6729674
08:36:14,570,-0.7960003,1.2793207, 2.4943008,-4.982783, -1.6410756, 7.6729674
08:36:14,571,-0.7960003,1.2793207, 2.4943008,-4.3674726, -0.94675714, 7.4239707
08:36:14,572,-0.66346675,1.2309242, 2.2930813,-4.3674726, -0.94675714, 7.4239707
08:36:14,573,-0.66346675,1.2309242, 2.2930813,-4.6739306, -1.8397944, 7.6609964
08:36:14,574,-0.68205154,1.1877468, 2.293099,-4.6739306, -1.8397944, 7.6609964
08:36:14,575,-0.68205154,1.1877468, 2.293099,-4.4656353, -1.6123452, 8.429535
08:36:14,576,-0.39315495,1.2465374, 2.0426903,-4.4656353, -1.6123452, 8.429535
08:36:14,577,-0.39315495,1.2465374, 2.0426903,-3.917363, 1.548001, 8.161385
08:36:14,578,-0.16755687,1.2690791, 1.8400478,-3.917363, 1.548001, 8.161385
08:36:15,579,-0.16755687,1.2690791, 1.8400478,-5.234174, 0.087538, 8.309825
08:36:15,580,0.056265853,1.2623843, 1.644343,-5.234174, 0.087538, 8.309825
08:36:15,581,0.056265853,1.2623843, 1.644343,-4.6691422, -0.4846762, 9.008932
08:36:15,582,-0.027895981,1.2553633, 1.7472823,-4.6691422, -0.4846762, 9.008932
08:36:15,583,-0.027895981,1.2553633, 1.7472823,-3.4600704, -2.455104, 9.590723
08:36:15,584,-0.3662187,1.2485441, 2.0829027,-3.4600704, -2.455104, 9.590723
08:36:15,585,-0.3662187,1.2485441, 2.0829027,-1.2286744, -3.937115, 9.705645
08:36:15,586,-0.50160986,1.240716, 2.2063923,-1.2286744, -3.937115, 9.705645
08:36:15,587,-0.50160986,1.240716, 2.2063923,1.4887445, -4.3584948, 9.200468
08:36:15,588,-0.8796306,1.2151238, 2.5343382,1.4887445, -4.3584948, 9.200468
08:36:15,589,-0.8796306,1.2151238, 2.5343382,2.858228, -4.672135, 8.209269
08:36:15,590,-1.2576184,1.1464555, 2.8298054,2.858228, -4.672135, 8.209269
08:36:15,591,-1.2576184,1.1464555, 2.8298054,2.183063, -6.5898905, 8.642619
08:36:15,592,-1.5684934,1.0490075, 3.049159,2.183063, -6.5898905, 8.642619
08:36:15,593,-1.5684934,1.0490075, 3.049159,4.0864534, -5.790227, 6.9810433
08:36:15,594,-1.6931016,0.98520005, 3.1272984,4.0864534, -5.790227, 6.9810433
08:36:15,595,-1.6931016,0.98520005, 3.1272984,5.1590557, -4.9283147, 6.3322144
08:36:15,596,-1.873189,0.8399073, -3.0707002,5.1590557, -4.9283147, 6.3322144
08:36:15,597,-1.873189,0.8399073, -3.0707002,2.31235, -10.3631525, 10.165332
08:36:15,598,-1.9906905,0.8319012, -3.0351045,2.31235, -10.3631525, 10.165332
08:36:15,599,-1.9906905,0.8319012, -3.0351045,1.3786112, -3.8102224, 8.752752
08:36:15,600,-2.0621223,0.9139119, -3.0464168,1.3786112, -3.8102224, 8.752752
08:36:15,601,-2.0621223,0.9139119, -3.0464168,-0.9341876, -7.566725, 10.088717
08:36:15,602,-2.0724528,0.94210654, -3.0547535,-0.9341876, -7.566725, 10.088717
08:36:15,603,-2.0724528,0.94210654, -3.0547535,0.93568397, -6.0775313, 7.730428
08:36:15,604,-2.0892382,0.9118125, -3.0417998,0.93568397, -6.0775313, 7.730428
08:36:15,605,-2.0892382,0.9118125, -3.0417998,0.54303485, -5.979369, 8.271518
08:36:15,606,-2.0602772,0.9332527, -3.0530798,0.54303485, -5.979369, 8.271518
08:36:15,607,-2.0602772,0.9332527, -3.0530798,0.7226, -5.1653404, 7.3521447
08:36:16,608,-2.0482802,0.93016076, -3.058561,0.7226, -5.1653404, 7.3521447
08:36:16,609,-2.0482802,0.93016076, -3.058561,0.50233346, -5.610662, 8.034492
08:36:16,610,-2.0503078,0.9332607, -3.0568814,0.50233346, -5.610662, 8.034492
08:36:16,611,-2.0503078,0.9332607, -3.0568814,0.51191026, -5.670517, 7.8932343
08:36:16,612,-2.0639937,0.929934, -3.0494025,0.51191026, -5.670517, 7.8932343
08:36:16,613,-2.0639937,0.929934, -3.0494025,0.5885247, -5.4598274, 7.668179
08:36:16,614,-2.0805888,0.9255729, -3.0390947,0.5885247, -5.4598274, 7.668179
08:36:16,615,-2.0805888,0.9255729, -3.0390947,0.65316814, -5.7279778, 7.9075994
08:36:16,616,-2.093084,0.92512864, -3.0299294,0.65316814, -5.7279778, 7.9075994
08:36:16,617,-2.093084,0.92512864, -3.0299294,0.73696524, -5.5915084, 7.718457
08:36:16,618,-2.097412,0.92280406, -3.026465,0.73696524, -5.5915084, 7.718457
08:36:16,619,-2.097412,0.92280406, -3.026465,0.75611883, -5.7112184, 7.8692923
08:36:16,620,-2.1035416,0.92326814, -3.019254,0.75611883, -5.7112184, 7.8692923
08:36:16,621,-2.1035416,0.92326814, -3.019254,0.75133044, -5.6537576, 7.7112746
08:36:16,622,-2.1072295,0.9218872, -3.0130332,0.75133044, -5.6537576, 7.7112746
08:36:16,623,-2.1072295,0.9218872, -3.0130332,0.8207623, -5.66094, 7.7567644
08:36:16,624,-2.110495,0.92063797, -3.0072784,0.8207623, -5.66094, 7.7567644
08:36:16,625,-2.110495,0.92063797, -3.0072784,0.8135797, -5.696853, 7.7328224
08:36:16,626,-2.1121523,0.9202696, -3.0048091,0.8135797, -5.696853, 7.7328224
08:36:16,627,-2.1121523,0.9202696, -3.0048091,0.7920318, -5.6753054, 7.8812633
08:36:16,628,-2.1150553,0.92016757, -3.0007985,0.7920318, -5.6753054, 7.8812633
08:36:16,629,-2.1150553,0.92016757, -3.0007985,0.85188687, -5.692065, 7.89084
08:36:16,630,-2.1158621,0.92016596, -2.9993842,0.85188687, -5.692065, 7.89084
08:36:16,631,-2.1158621,0.92016596, -2.9993842,0.8686463, -5.6274214, 7.797466
08:36:16,632,-2.1167564,0.91978985, -2.9981687,0.8686463, -5.6274214, 7.797466
08:36:16,633,-2.1167564,0.91978985, -2.9981687,0.7896376, -5.672911, 7.749582
08:36:16,634,-2.118769,0.91947085, -2.9963622,0.7896376, -5.672911, 7.749582
08:36:16,635,-2.118769,0.91947085, -2.9963622,0.8782231, -5.7471313, 7.8692923
08:36:17,636,-2.1229675,0.9184716, -2.9936037,0.8782231, -5.7471313, 7.8692923
08:36:17,637,-2.1229675,0.9184716, -2.9936037,0.8973767, -5.6872764, 7.751976
08:36:17,638,-2.1244464,0.91829115, -2.9928398,0.8973767, -5.6872764, 7.751976
08:36:17,639,-2.1244464,0.91829115, -2.9928398,0.85188687, -5.6633344, 7.766341
08:36:17,640,-2.1234193,0.91851443, -2.9940095,0.85188687, -5.6633344, 7.766341
08:36:17,641,-2.1234193,0.91851443, -2.9940095,0.8327333, -5.692065, 7.81662
08:36:17,642,-2.1234424,0.9185572, -2.9939864,0.8327333, -5.692065, 7.81662
08:36:17,643,-2.1234424,0.9185572, -2.9939864,0.8447043, -5.694459, 7.785495
08:36:17,644,-2.1234424,0.9187733, -2.993968,0.8447043, -5.694459, 7.785495
08:36:17,645,-2.1234424,0.9187733, -2.993968,0.8423101, -5.66094, 7.7831006
08:36:17,646,-2.1232626,0.91904014, -2.9945762,0.8423101, -5.66094, 7.7831006
08:36:17,647,-2.1232626,0.91904014, -2.9945762,0.8087913, -5.6537576, 7.8501387
08:36:17,648,-2.123284,0.9191549, -2.9945457,0.8087913, -5.6537576, 7.8501387
08:36:17,649,-2.123284,0.9191549, -2.9945457,0.8327333, -5.668123, 7.730428
08:36:17,650,-2.1227565,0.91954243, -2.9953942,0.8327333, -5.668123, 7.730428
08:36:17,651,-2.1227565,0.91954243, -2.9953942,0.7776666, -5.6633344, 7.8477445
08:36:17,652,-2.1226628,0.91976035, -2.9954963,0.7776666, -5.6633344, 7.8477445
08:36:17,653,-2.1226628,0.91976035, -2.9954963,0.8207623, -5.7160068, 7.797466
08:36:17,654,-2.1225893,0.91994923, -2.9955785,0.8207623, -5.7160068, 7.797466
08:36:17,655,-2.1225893,0.91994923, -2.9955785,0.8016087, -5.6753054, 7.8357735
08:36:17,656,-2.1225579,0.9200075, -2.9956276,0.8016087, -5.6753054, 7.8357735
08:36:17,657,-2.1225579,0.9200075, -2.9956276,0.76330143, -5.7112184, 7.7567644
08:36:17,658,-2.1225073,0.9202391, -2.9956868,0.76330143, -5.7112184, 7.7567644
08:36:17,659,-2.1225073,0.9202391, -2.9956868,0.7010522, -5.648969, 7.751976
08:36:17,660,-2.122329,0.9204589, -2.995918,0.7010522, -5.648969, 7.751976
08:36:17,661,-2.122329,0.9204589, -2.995918,0.782455, -5.63221, 7.854927
08:36:17,662,-2.1222372,0.9207059, -2.996063,0.782455, -5.63221, 7.854927
08:36:17,663,-2.1222372,0.9207059, -2.996063,0.74414784, -5.646575, 7.814225
08:36:17,664,-2.1221404,0.9208519, -2.9961684,0.74414784, -5.646575, 7.814225
08:36:18,665,-2.1221404,0.9208519, -2.9961684,0.75372463, -5.7136126, 7.89084
08:36:18,666,-2.1220598,0.9210698, -2.9962845,0.75372463, -5.7136126, 7.89084
08:36:18,667,-2.1220598,0.9210698, -2.9962845,0.7321768, -5.644181, 7.766341
08:36:18,668,-2.1217067,0.92173254, -2.997592,0.7321768, -5.644181, 7.766341
08:36:18,669,-2.1217067,0.92173254, -2.997592,0.686687, -5.646575, 7.864504
08:36:18,670,-2.120617,0.92280483, -3.000751,0.686687, -5.646575, 7.864504
08:36:18,671,-2.120617,0.92280483, -3.000751,0.7178116, -5.636998, 7.828591
08:36:18,672,-2.1202106,0.92320704, -3.002076,0.7178116, -5.636998, 7.828591
08:36:18,673,-2.1202106,0.92320704, -3.002076,0.74175364, -5.672911, 7.778312
08:36:18,674,-2.1194887,0.92396563, -3.0046527,0.74175364, -5.672911, 7.778312
08:36:18,675,-2.1194887,0.92396563, -3.0046527,0.6890812, -5.6298156, 7.7711296
08:36:18,676,-2.1192255,0.92511916, -3.0067694,0.6890812, -5.6298156, 7.7711296
08:36:18,677,-2.1192255,0.92511916, -3.0067694,0.66274494, -5.692065, 7.8621097
08:36:18,678,-2.1183312,0.9255107, -3.008564,0.66274494, -5.692065, 7.8621097
08:36:18,679,-2.1183312,0.9255107, -3.008564,0.66035074, -5.598691, 7.8357735
08:36:18,680,-2.1182778,0.92559785, -3.008635,0.66035074, -5.598691, 7.8357735
08:36:18,681,-2.1182778,0.92559785, -3.008635,0.64837974, -5.6178446, 7.8214083
08:36:18,682,-2.1192966,0.9262398, -3.0087564,0.64837974, -5.6178446, 7.8214083
08:36:18,683,-2.1192966,0.9262398, -3.0087564,0.74654204, -5.682488, 7.8453503
08:36:18,684,-2.1238468,0.9256248, -3.0075283,0.74654204, -5.682488, 7.8453503
08:36:18,685,-2.1238468,0.9256248, -3.0075283,0.73696524, -5.63221, 7.761553
08:36:18,686,-2.1252728,0.9254534, -3.0091376,0.73696524, -5.63221, 7.761553
08:36:18,687,-2.1252728,0.9254534, -3.0091376,0.686687, -5.610662, 7.809437
08:36:18,688,-2.1251416,0.9260657, -3.010087,0.686687, -5.610662, 7.809437
08:36:18,689,-2.1251416,0.9260657, -3.010087,0.65077394, -5.680094, 7.79986
08:36:18,690,-2.125056,0.9262111, -3.0102077,0.65077394, -5.680094, 7.79986
08:36:18,691,-2.125056,0.9262111, -3.0102077,0.686687, -5.6058736, 7.8740807
08:36:18,692,-2.124959,0.9264284, -3.0103126,0.686687, -5.6058736, 7.8740807
08:36:19,693,-2.124959,0.9264284, -3.0103126,0.65556234, -5.625027, 7.8261967
08:36:19,694,-2.1259372,0.92696697, -3.0101352,0.65556234, -5.625027, 7.8261967
08:36:19,695,-2.1259372,0.92696697, -3.0101352,0.7058406, -5.598691, 7.8070426
08:36:19,696,-2.1266103,0.9269914, -3.0102024,0.7058406, -5.598691, 7.8070426
08:36:19,697,-2.1266103,0.9269914, -3.0102024,0.698658, -5.5795374, 7.809437
08:36:19,698,-2.1265268,0.9272087, -3.0103207,0.698658, -5.5795374, 7.809437
08:36:19,699,-2.1265268,0.9272087, -3.0103207,0.66992754, -5.646575, 7.8740807
08:36:19,700,-2.126407,0.9273832, -3.0104485,0.66992754, -5.646575, 7.8740807
08:36:19,701,-2.126407,0.9273832, -3.0104485,0.6842928, -5.598691, 7.802254
08:36:19,702,-2.127495,0.9273874, -3.0101547,0.6842928, -5.598691, 7.802254
08:36:19,703,-2.127495,0.9273874, -3.0101547,0.74414784, -5.6417866, 7.8692923
08:36:19,704,-2.1288369,0.9272717, -3.0095184,0.74414784, -5.6417866, 7.8692923
08:36:19,705,-2.1288369,0.9272717, -3.0095184,0.7034464, -5.684882, 7.840562
08:36:19,706,-2.1313667,0.92712915, -3.0086486,0.7034464, -5.684882, 7.840562
08:36:19,707,-2.1313667,0.92712915, -3.0086486,0.7154174, -5.63221, 7.852533
08:36:19,708,-2.1320965,0.9270228, -3.008696,0.7154174, -5.63221, 7.852533
08:36:19,709,-2.1320965,0.9270228, -3.008696,0.73696524, -5.620239, 7.814225
08:36:19,710,-2.1320648,0.9272247, -3.0087354,0.73696524, -5.620239, 7.814225
08:36:19,711,-2.1320648,0.9272247, -3.0087354,0.7249942, -5.636998, 7.854927
08:36:19,712,-2.1320326,0.92728305, -3.008785,0.7249942, -5.636998, 7.854927
08:36:19,713,-2.1320326,0.92728305, -3.008785,0.7154174, -5.610662, 7.8573213
08:36:19,714,-2.1319368,0.9275006, -3.0088885,0.7154174, -5.610662, 7.8573213
08:36:19,715,-2.1319368,0.9275006, -3.0088885,0.7010522, -5.601085, 7.8692923
08:36:19,716,-2.1305535,0.92775285, -3.010208,0.7010522, -5.601085, 7.8692923
08:36:19,717,-2.1305535,0.92775285, -3.010208,0.7082348, -5.6154504, 7.7352166
08:36:19,718,-2.1304255,0.92792743, -3.0103266,0.7082348, -5.6154504, 7.7352166
08:36:19,719,-2.1304255,0.92792743, -3.0103266,0.66274494, -5.608268, 7.852533
08:36:19,720,-2.1303723,0.9280147, -3.010397,0.66274494, -5.608268, 7.852533
08:36:19,721,-2.1303723,0.9280147, -3.010397,0.62683195, -5.5699606, 7.830985
08:36:20,722,-2.1291916,0.92812353, -3.0121477,0.62683195, -5.5699606, 7.830985
08:36:20,723,-2.1291916,0.92812353, -3.0121477,0.65077394, -5.6298156, 7.8357735
08:36:20,724,-2.129256,0.92809606, -3.0123868,0.65077394, -5.6298156, 7.8357735
08:36:20,725,-2.129256,0.92809606, -3.0123868,0.64119714, -5.6417866, 7.902811
08:36:20,726,-2.129129,0.92829955, -3.0125487,0.64119714, -5.6417866, 7.902811
08:36:20,727,-2.129129,0.92829955, -3.0125487,0.66513914, -5.601085, 7.79986
08:36:20,728,-2.1290755,0.9283867, -3.0126193,0.66513914, -5.601085, 7.79986
08:36:20,729,-2.1290755,0.9283867, -3.0126193,0.6771102, -5.6393924, 7.8046484
08:36:20,730,-2.1289785,0.928604, -3.0127242,0.6771102, -5.6393924, 7.8046484
08:36:20,731,-2.1289785,0.928604, -3.0127242,0.62204355, -5.6274214, 7.8238025
08:36:20,732,-2.128828,0.92876464, -3.0129094,0.62204355, -5.6274214, 7.8238025
08:36:20,733,-2.128828,0.92876464, -3.0129094,0.62443775, -5.636998, 7.809437
08:36:20,734,-2.1274617,0.92898464, -3.014212,0.62443775, -5.636998, 7.809437
08:36:20,735,-2.1274617,0.92898464, -3.014212,0.5741595, -5.572355, 7.840562
08:36:20,736,-2.1274288,0.9290428, -3.0142622,0