Time,Record No,Azimuth,Pitch,Roll,Accel-X,Accel-Y,Accel-Z
08:36:29,0,-1.9018137,1.2239953, 3.1348069,1.1176432, -5.289839, 8.077588
08:36:29,1,-1.9018137,1.2239953, 3.1348069,1.1176432, -5.289839, 8.077588
08:36:29,2,-1.9018137,1.2239953, 3.1348069,1.1176432, -5.289839, 8.077588
08:36:29,3,-1.9018137,1.2239953, 3.1348069,1.1176432, -5.289839, 8.077588
08:36:29,4,-1.9018137,1.2239953, 3.1348069,1.1176432, -5.289839, 8.077588
08:36:29,5,-1.9018137,1.2239953, 3.1348069,1.1176432, -5.289839, 8.077588
08:36:29,6,-2.011821,1.0524181, -3.0296726,1.1176432, -5.289839, 8.077588
08:36:29,7,-2.011821,1.0524181, -3.0296726,0.35868135, -4.8157873, 8.254759
08:36:29,8,-2.001567,1.0504405, -3.04033,0.35868135, -4.8157873, 8.254759
08:36:29,9,-2.001567,1.0504405, -3.04033,0.23418285, -4.825364, 8.412776
08:36:29,10,-1.9974335,1.0493923, -3.045418,0.23418285, -4.825364, 8.412776
08:36:29,11,-1.9974335,1.0493923, -3.045418,0.2964321, -4.7631145, 8.352921
08:36:29,12,-1.9914714,1.047254, -3.0543516,0.2964321, -4.7631145, 8.352921
08:36:29,13,-1.9914714,1.047254, -3.0543516,0.24136546, -4.8756423, 8.261941
08:36:29,14,-1.9854361,1.0423589, -3.063329,0.24136546, -4.8756423, 8.261941
08:36:29,15,-1.9854361,1.0423589, -3.063329,0.23897126, -4.8540945, 8.305037
08:36:29,16,-1.9753563,1.0358107, -3.0723732,0.23897126, -4.8540945, 8.305037
08:36:29,17,-1.9753563,1.0358107, -3.0723732,0.20784664, -4.969016, 8.367286
08:36:29,18,-1.9553735,1.0299981, -3.0839076,0.20784664, -4.969016, 8.367286
08:36:29,19,-1.9553735,1.0299981, -3.0839076,0.04743512, -5.0791492, 8.237999
08:36:29,20,-1.9427991,1.0276295, -3.090375,0.04743512, -5.0791492, 8.237999
08:36:29,21,-1.9427991,1.0276295, -3.090375,-0.014814123, -4.9881697, 8.156596
08:36:30,22,-1.9213454,1.0238976, -3.0997639,-0.014814123, -4.9881697, 8.156596
08:36:30,23,-1.9213454,1.0238976, -3.0997639,0.040252518, -5.0480247, 8.151808
08:36:30,24,-1.9126548,1.0209235, -3.1013489,0.040252518, -5.0480247, 8.151808
08:36:30,25,-1.9126548,1.0209235, -3.1013489,0.09053075, -5.0599957, 8.233211
08:36:30,26,-1.9101222,1.0172745, -3.1022663,0.09053075, -5.0599957, 8.233211
08:36:30,27,-1.9101222,1.0172745, -3.1022663,0.04504092, -5.0360537, 8.144626
08:36:30,28,-1.9096513,1.01501, -3.1029963,0.04504092, -5.0360537, 8.144626
08:36:30,29,-1.9096513,1.01501, -3.1029963,0.1479916, -5.158158, 8.230817
08:36:30,30,-1.9115951,1.0142703, -3.101035,0.1479916, -5.158158, 8.230817
08:36:30,31,-1.9115951,1.0142703, -3.101035,0.15278, -5.0001407, 8.257153
08:36:30,32,-1.9182467,1.0118531, -3.095602,0.15278, -5.0001407, 8.257153
08:36:30,33,-1.9182467,1.0118531, -3.095602,0.19587563, -4.9402857, 8.161385
08:36:30,34,-1.9237034,1.0093031, -3.0914605,0.19587563, -4.9402857, 8.161385
08:36:30,35,-1.9237034,1.0093031, -3.0914605,0.18151042, -5.014506, 8.211663
08:36:30,36,-1.922563,1.008942, -3.090417,0.18151042, -5.014506, 8.211663
08:36:30,37,-1.922563,1.008942, -3.090417,0.11207857, -5.0791492, 8.068011
08:36:30,38,-1.9194978,1.0087342, -3.0916274,0.11207857, -5.0791492, 8.068011
08:36:30,39,-1.9194978,1.0087342, -3.0916274,0.13123219, -5.0935144, 8.156596
08:36:30,40,-1.9159318,1.0084623, -3.0924556,0.13123219, -5.0935144, 8.156596
08:36:30,41,-1.9159318,1.0084623, -3.0924556,0.14320318, -5.1318216, 8.180538
08:36:30,42,-1.9184403,1.0071045, -3.0909154,0.14320318, -5.1318216, 8.180538
08:36:30,43,-1.9184403,1.0071045, -3.0909154,0.21502924, -5.06239, 8.163779
08:36:30,44,-1.9239216,1.0055625, -3.088545,0.21502924, -5.06239, 8.163779
08:36:30,45,-1.9239216,1.0055625, -3.088545,0.16714521, -5.086332, 8.288278
08:36:30,46,-1.9252928,1.0052782, -3.0886173,0.16714521, -5.086332, 8.288278
08:36:30,47,-1.9252928,1.0052782, -3.0886173,0.27488428, -5.088726, 8.094347
08:36:30,48,-1.9262301,1.0048798, -3.0886538,0.27488428, -5.088726, 8.094347
08:36:30,49,-1.9262301,1.0048798, -3.0886538,0.18869302, -5.0192943, 8.178144
08:36:30,50,-1.9260767,1.0050128, -3.0888004,0.18869302, -5.0192943, 8.178144
08:36:31,51,-1.9260767,1.0050128, -3.0888004,0.17911622, -5.086332, 8.245182
08:36:31,52,-1.9283227,1.0043797, -3.0877895,0.17911622, -5.086332, 8.245182
08:36:31,53,-1.9283227,1.0043797, -3.0877895,0.23657705, -5.110274, 8.180538
08:36:31,54,-1.9302187,1.0042834, -3.086599,0.23657705, -5.110274, 8.180538
08:36:31,55,-1.9302187,1.0042834, -3.086599,0.20545243, -4.992958, 8.132654
08:36:31,56,-1.9356655,1.0041387, -3.083391,0.20545243, -4.992958, 8.132654
08:36:31,57,-1.9356655,1.0041387, -3.083391,0.32995093, -5.0695724, 8.182933
08:36:31,58,-1.9430004,1.0023685, -3.0787961,0.32995093, -5.0695724, 8.182933
08:36:31,59,-1.9430004,1.0023685, -3.0787961,0.33473933, -5.0695724, 8.147019
08:36:31,60,-1.9465455,1.0010097, -3.0766811,0.33473933, -5.0695724, 8.147019
08:36:31,61,-1.9465455,1.0010097, -3.0766811,0.2964321, -5.0719666, 8.202086
08:36:31,62,-1.9465007,1.0011072, -3.076719,0.2964321, -5.0719666, 8.202086
08:36:31,63,-1.9465007,1.0011072, -3.076719,0.3036147, -5.110274, 8.118289
08:36:31,64,-1.9469025,1.0008656, -3.0765977,0.3036147, -5.110274, 8.118289
08:36:31,65,-1.9469025,1.0008656, -3.0765977,0.3203741, -5.064784, 8.163779
08:36:31,66,-1.9477226,1.0006337, -3.0770447,0.3203741, -5.064784, 8.163779
08:36:31,67,-1.9477226,1.0006337, -3.0770447,0.27727848, -5.139004, 8.194903
08:36:31,68,-1.9476159,1.000741, -3.0771704,0.27727848, -5.139004, 8.194903
08:36:31,69,-1.9476159,1.000741, -3.0771704,0.25812486, -5.1174564, 8.209269
08:36:31,70,-1.947538,1.0008217, -3.0772667,0.25812486, -5.1174564, 8.209269
08:36:31,71,-1.947538,1.0008217, -3.0772667,0.3012205, -5.1533694, 8.096742
08:36:31,72,-1.9474435,1.0008583, -3.0773802,0.3012205, -5.1533694, 8.096742
08:36:31,73,-1.9474435,1.0008583, -3.0773802,0.27488428, -5.134216, 8.194903
08:36:31,74,-1.9481077,1.0009704, -3.0776439,0.27488428, -5.134216, 8.194903
08:36:31,75,-1.9481077,1.0009704, -3.0776439,0.3012205, -5.064784, 8.185327
08:36:31,76,-1.9488251,1.0008701, -3.0778875,0.3012205, -5.064784, 8.185327
08:36:31,77,-1.9488251,1.0008701, -3.0778875,0.27727848, -5.115062, 8.173356
08:36:31,78,-1.948813,1.0009408, -3.0778997,0.27727848, -5.115062, 8.173356
08:36:32,79,-1.948813,1.0009408, -3.0778997,0.3084031, -5.0791492, 8.108712
08:36:32,80,-1.9496039,1.0008969, -3.0787244,0.3084031, -5.0791492, 8.108712
08:36:32,81,-1.9496039,1.0008969, -3.0787244,0.2653075, -5.06239, 8.170961
08:36:32,82,-1.9494555,1.0007437, -3.0794013,0.2653075, -5.06239, 8.170961
08:36:32,83,-1.9494555,1.0007437, -3.0794013,0.2605191, -5.1030912, 8.156596
08:36:32,84,-1.9494141,1.0008413, -3.0794425,0.2605191, -5.1030912, 8.156596
08:36:32,85,-1.9494141,1.0008413, -3.0794425,0.27727848, -5.1054854, 8.123077
08:36:32,86,-1.9493945,1.0008682, -3.079481,0.27727848, -5.1054854, 8.123077
08:36:32,87,-1.9493945,1.0008682, -3.079481,0.2653075, -5.1533694, 8.168568
08:36:32,88,-1.949149,1.0005759, -3.0804021,0.2653075, -5.1533694, 8.168568
08:36:32,89,-1.949149,1.0005759, -3.0804021,0.22939445, -5.1030912, 8.170961
08:36:32,90,-1.9490681,1.0007273, -3.0805204,0.22939445, -5.1030912, 8.170961
08:36:32,91,-1.9490681,1.0007273, -3.0805204,0.27727848, -5.1437926, 8.156596
08:36:32,92,-1.9489481,1.0008346, -3.0806332,0.27727848, -5.1437926, 8.156596
08:36:32,93,-1.9489481,1.0008346, -3.0806332,0.24615386, -5.1030912, 8.180538
08:36:32,94,-1.9490284,1.0006518, -3.0810885,0.24615386, -5.1030912, 8.180538
08:36:32,95,-1.9490284,1.0006518, -3.0810885,0.2916437, -5.0336595, 8.147019
08:36:32,96,-1.9497542,1.0006907, -3.0809987,0.2916437, -5.0336595, 8.147019
08:36:32,97,-1.9497542,1.0006907, -3.0809987,0.27727848, -5.1533694, 8.237999
08:36:32,98,-1.9497062,1.0008589, -3.0810583,0.27727848, -5.1533694, 8.237999
08:36:32,99,-1.9497062,1.0008589, -3.0810583,0.22700025, -5.098303, 8.218845
08:36:32,100,-1.949541,1.00102, -3.081242,0.22700025, -5.098303, 8.218845
08:36:32,101,-1.949541,1.00102, -3.081242,0.24615386, -5.098303, 8.199692
08:36:32,102,-1.9495524,1.0009177, -3.0818036,0.24615386, -5.098303, 8.199692
08:36:32,103,-1.9495524,1.0009177, -3.0818036,0.27249008, -5.0839376, 8.173356
08:36:32,104,-1.9494712,1.001069, -3.0819218,0.27249008, -5.0839376, 8.173356
08:36:32,105,-1.9494712,1.001069, -3.0819218,0.24615386, -5.1054854, 8.180538
08:36:32,106,-1.9494298,1.0011665, -3.0819635,0.24615386, -5.1054854, 8.180538
08:36:32,107,-1.9494298,1.0011665, -3.0819635,0.23897126, -5.0791492, 8.187721
08:36:33,108,-1.9493064,1.0013446, -3.0820982,0.23897126, -5.0791492, 8.187721
08:36:33,109,-1.9493064,1.0013446, -3.0820982,0.25094226, -5.0959086, 8.180538
08:36:33,110,-1.9492574,1.0013982, -3.0821657,0.25094226, -5.0959086, 8.180538
08:36:33,111,-1.9492574,1.0013982, -3.0821657,0.22939445, -5.0671782, 8.206875
08:36:33,112,-1.9479305,1.0015199, -3.0834227,0.22939445, -5.0671782, 8.206875
08:36:33,113,-1.9479305,1.0015199, -3.0834227,0.25573066, -5.0815434, 8.158991
08:36:33,114,-1.9477901,1.0016539, -3.0835745,0.25573066, -5.0815434, 8.158991
08:36:33,115,-1.9477901,1.0016539, -3.0835745,0.22460605, -5.0695724, 8.19251
08:36:33,116,-1.9473879,1.001741, -3.0845237,0.22460605, -5.0695724, 8.19251
08:36:33,117,-1.9473879,1.001741, -3.0845237,0.21024084, -5.1054854, 8.135049
08:36:33,118,-1.9472929,1.0017776, -3.0846372,0.21024084, -5.1054854, 8.135049
08:36:33,119,-1.9472929,1.0017776, -3.0846372,0.2605191, -5.0959086, 8.089559
08:36:33,120,-1.9466301,1.0015935, -3.0857656,0.2605191, -5.0959086, 8.089559
08:36:33,121,-1.9466301,1.0015935, -3.0857656,0.23657705, -5.0576015, 8.151808
08:36:33,122,-1.9465187,1.0017712, -3.0859141,0.23657705, -5.0576015, 8.151808
08:36:33,123,-1.9465187,1.0017712, -3.0859141,0.19587563, -5.1054854, 8.228422
08:36:33,124,-1.9463155,1.0019147, -3.0861547,0.19587563, -5.1054854, 8.228422
08:36:33,125,-1.9463155,1.0019147, -3.0861547,0.13123219, -5.1198506, 8.20448
08:36:33,126,-1.943345,1.0023439, -3.0899498,0.13123219, -5.1198506, 8.20448
08:36:33,127,-1.943345,1.0023439, -3.0899498,0.119261175, -5.0791492, 8.197298
08:36:33,128,-1.9352739,1.0038708, -3.1003842,0.119261175, -5.0791492, 8.197298
08:36:33,129,-1.9352739,1.0038708, -3.1003842,0.18151042, -5.0815434, 8.123077
08:36:33,130,-1.9317827,1.0058273, -3.1063304,0.18151042, -5.0815434, 8.123077
08:36:33,131,-1.9317827,1.0058273, -3.1063304,-0.043544542, -5.443068, 8.503756
08:36:33,132,-1.9225042,1.0355875, -3.1106732,-0.043544542, -5.443068, 8.503756
08:36:33,133,-1.9225042,1.0355875, -3.1106732,-0.18719664, -5.3760304, 9.205256
08:36:33,134,-1.9286507,1.0649847, -3.0932224,-0.18719664, -5.3760304, 9.205256
08:36:33,135,-1.9286507,1.0649847, -3.0932224,0.38501757, -4.6170683, 9.135825
08:36:34,136,-1.9457854,1.07298, -3.065676,0.38501757, -4.6170683, 9.135825
08:36:34,137,-1.9457854,1.07298, -3.065676,1.0529999, -2.9626749, 9.772682
08:36:34,138,-2.0189908,1.0982172, -2.9633682,1.0529999, -2.9626749, 9.772682
08:36:34,139,-2.0189908,1.0982172, -2.9633682,3.9499838, -1.7464205, 11.127801
08:36:34,140,-2.1693122,1.1135484, -2.7941198,3.9499838, -1.7464205, 11.127801
08:36:34,141,-2.1693122,1.1135484, -2.7941198,4.119972, -1.7129017, 10.280253
08:36:34,142,-2.3546922,1.104561, -2.6351423,4.119972, -1.7129017, 10.280253
08:36:34,143,-2.3546922,1.104561, -2.6351423,4.7424645, -3.5181298, 10.476578
08:36:34,144,-2.4444525,1.110511, -2.5867815,4.7424645, -3.5181298, 10.476578
08:36:34,145,-2.4444525,1.110511, -2.5867815,2.017863, -5.127033, 7.761553
08:36:34,146,-2.5574706,1.1563793, -2.5887713,2.017863, -5.127033, 7.761553
08:36:34,147,-2.5574706,1.1563793, -2.5887713,-1.5494974, -3.6569934, 7.3736925
08:36:34,148,-2.4173036,1.2008522, -2.8887486,-1.5494974, -3.6569934, 7.3736925
08:36:34,149,-2.4173036,1.2008522, -2.8887486,-7.77921, -3.8269818, 7.024139
08:36:34,150,-2.1316783,1.1517527, 2.9196215,-7.77921, -3.8269818, 7.024139
08:36:34,151,-2.1316783,1.1517527, 2.9196215,-6.493524, -3.5540428, 7.878869
08:36:34,152,-2.1455696,1.0612863, 2.853544,-6.493524, -3.5540428, 7.878869
08:36:34,153,-2.1455696,1.0612863, 2.853544,-3.5917516, -5.2371664, 6.147861
08:36:34,154,-2.1762018,0.95922345, 2.8047955,-3.5917516, -5.2371664, 6.147861
08:36:34,155,-2.1762018,0.95922345, 2.8047955,-4.5614033, -5.6154504, 5.175815
08:36:34,156,-2.154313,0.91476697, 2.8132994,-4.5614033, -5.6154504, 5.175815
08:36:34,157,-2.154313,0.91476697, 2.8132994,-5.092916, -6.228366, 7.3617215
08:36:34,158,-2.176085,0.83901125, 3.0043771,-5.092916, -6.228366, 7.3617215
08:36:34,159,-2.176085,0.83901125, 3.0043771,-6.0338373, -7.080702, 3.380164
08:36:34,160,-2.1598568,0.8447701, 3.1005251,-6.0338373, -7.080702, 3.380164
08:36:34,161,-2.1598568,0.8447701, 3.1005251,-3.8790557, -4.6865, 7.830985
08:36:34,162,-2.1529489,0.9557022, -3.010801,-3.8790557, -4.6865, 7.830985
08:36:34,163,-2.1529489,0.9557022, -3.010801,-0.86236155, -5.294627, 8.293066
08:36:34,164,-2.17946,0.9515184, -2.854823,-0.86236155, -5.294627, 8.293066
08:36:35,165,-2.17946,0.9515184, -2.854823,1.6228198, -3.8126166, 9.0376625
08:36:35,166,-2.1494966,0.92185044, -2.8221188,1.6228198, -3.8126166, 9.0376625
08:36:35,167,-2.1494966,0.92185044, -2.8221188,6.4231944, -3.30744, 8.501361
08:36:35,168,-2.1185837,0.8999866, -2.8476062,6.4231944, -3.30744, 8.501361
08:36:35,169,-2.1185837,0.8999866, -2.8476062,4.131943, -3.628263, 9.138219
08:36:35,170,-2.1097546,0.9102196, -2.8667486,4.131943, -3.628263, 9.138219
08:36:35,171,-2.1097546,0.9102196, -2.8667486,2.0082862, -3.841347, 10.076746
08:36:35,172,-2.124511,1.0285621, -2.868701,2.0082862, -3.841347, 10.076746
08:36:35,173,-2.124511,1.0285621, -2.868701,0.6795044, -3.6115036, 9.538051
08:36:35,174,-2.0918062,1.0556877, -2.908669,0.6795044, -3.6115036, 9.538051
08:36:35,175,-2.0918062,1.0556877, -2.908669,1.2636896, -5.7399487, 8.582765
08:36:35,176,-2.072964,1.0564512, -2.9273212,1.2636896, -5.7399487, 8.582765
08:36:35,177,-2.072964,1.0564512, -2.9273212,-0.630124, -6.9945107, 8.941895
08:36:35,178,-1.9842297,1.0596485, -3.0023077,-0.630124, -6.9945107, 8.941895
08:36:35,179,-1.9842297,1.0596485, -3.0023077,-0.6827964, -4.3130045, 7.8621097
08:36:35,180,-1.9531819,1.0365599, -3.0295794,-0.6827964, -4.3130045, 7.8621097
08:36:35,181,-1.9531819,1.0365599, -3.0295794,0.28924948, -4.861277, 8.290671
08:36:35,182,-1.9475096,1.0338334, -3.0428305,0.28924948, -4.861277, 8.290671
08:36:35,183,-1.9475096,1.0338334, -3.0428305,-0.09142858, -5.194071, 8.242787
08:36:35,184,-1.9480009,1.0341793, -3.048543,-0.09142858, -5.194071, 8.242787
08:36:35,185,-1.9480009,1.0341793, -3.048543,-0.03875614, -4.9259205, 8.31222
08:36:35,186,-1.9541355,1.0354056, -3.0502498,-0.03875614, -4.9259205, 8.31222
08:36:35,187,-1.9541355,1.0354056, -3.0502498,-0.017208325, -5.162946, 8.484602
08:36:35,188,-1.948104,1.037288, -3.058627,-0.017208325, -5.162946, 8.484602
08:36:35,189,-1.948104,1.037288, -3.058627,-0.15128362, -4.89719, 8.22124
08:36:35,190,-1.9348713,1.0369986, -3.0694745,-0.15128362, -4.89719, 8.22124
08:36:35,191,-1.9348713,1.0369986, -3.0694745,0.10729016, -5.0097175, 8.118289
08:36:35,192,-1.9287663,1.0356891, -3.0736191,0.10729016, -5.0097175, 8.118289
08:36:35,193,-1.9287663,1.0356891, -3.0736191,0.0019452889, -4.8995843, 8.108712
08:36:36,194,-1.916299,1.0355296, -3.0825422,0.0019452889, -4.8995843, 8.108712
08:36:36,195,-1.916299,1.0355296, -3.0825422,-0.07466917, -4.8684597, 8.247576
08:36:36,196,-1.9061576,1.0366179, -3.091848,-0.07466917, -4.8684597, 8.247576
08:36:36,197,-1.9061576,1.0366179, -3.091848,-0.08424597, -4.8924017, 8.24997
08:36:36,198,-1.8995478,1.0365454, -3.098192,-0.08424597, -4.8924017, 8.24997
08:36:36,199,-1.8995478,1.0365454, -3.098192,-0.062698156, -5.002535, 8.276306
08:36:36,200,-1.8992335,1.0365344, -3.0985506,-0.062698156, -5.002535, 8.276306
08:36:36,201,-1.8992335,1.0365344, -3.0985506,0.021098902, -4.966622, 8.321796
08:36:36,202,-1.8987538,1.0364522, -3.0991254,0.021098902, -4.966622, 8.321796
08:36:36,203,-1.8987538,1.0364522, -3.0991254,-0.010025719, -5.0312653, 8.307431
08:36:36,204,-1.8976992,1.0353451, -3.1009016,-0.010025719, -5.0312653, 8.307431
08:36:36,205,-1.8976992,1.0353451, -3.1009016,-0.02439093, -4.8636713, 8.24997
08:36:36,206,-1.8963599,1.0344353, -3.103159,-0.02439093, -4.8636713, 8.24997
08:36:36,207,-1.8963599,1.0344353, -3.103159,-0.012419921, -4.9642277, 8.281095
08:36:36,208,-1.8942235,1.0354232, -3.1057506,-0.012419921, -4.9642277, 8.281095
08:36:36,209,-1.8942235,1.0354232, -3.1057506,-0.07706337, -4.9714103, 8.309825
08:36:36,210,-1.8910009,1.036368, -3.1097069,-0.07706337, -4.9714103, 8.309825
08:36:36,211,-1.8910009,1.036368, -3.1097069,-0.057909753, -4.9115553, 8.278701
08:36:36,212,-1.8905717,1.0363448, -3.1102057,-0.057909753, -4.9115553, 8.278701
08:36:36,213,-1.8905717,1.0363448, -3.1102057,-0.18719664, -4.7726912, 8.118289
08:36:36,214,-1.8858765,1.0384965, -3.1158547,-0.18719664, -4.7726912, 8.118289
08:36:36,215,-1.8858765,1.0384965, -3.1158547,-0.060303956, -4.7631145, 8.247576
08:36:36,216,-1.8848096,1.037772, -3.1177382,-0.060303956, -4.7631145, 8.247576
08:36:36,217,-1.8848096,1.037772, -3.1177382,-0.062698156, -4.837335, 8.24997
08:36:36,218,-1.884407,1.0378354, -3.1182106,-0.062698156, -4.837335, 8.24997
08:36:36,219,-1.884407,1.0378354, -3.1182106,-0.033967737, -4.8325467, 8.214057
08:36:36,220,-1.8804688,1.0361133, -3.1227136,-0.033967737, -4.8325467, 8.214057
08:36:36,221,-1.8804688,1.0361133, -3.1227136,-0.1249474, -4.684106, 8.273912
08:36:37,222,-1.8740064,1.036743, -3.1288779,-0.1249474, -4.684106, 8.273912
08:36:37,223,-1.8740064,1.036743, -3.1288779,-0.14649522, -4.9259205, 8.407988
08:36:37,224,-1.8738235,1.0367827, -3.129086,-0.14649522, -4.9259205, 8.407988
08:36:37,225,-1.8738235,1.0367827, -3.129086,-0.14410101, -4.9019785, 8.328979
08:36:37,226,-1.8733364,1.0368505, -3.1296363,-0.14410101, -4.9019785, 8.328979
08:36:37,227,-1.8733364,1.0368505, -3.1296363,-0.10100538, -4.8301525, 8.32419
08:36:37,228,-1.8732361,1.0354477, -3.1316683,-0.10100538, -4.8301525, 8.32419
08:36:37,229,-1.8732361,1.0354477, -3.1316683,-0.08424597, -4.849306, 8.285883
08:36:37,230,-1.8728343,1.0347004, -3.1328497,-0.08424597, -4.849306, 8.285883
08:36:37,231,-1.8728343,1.0347004, -3.1328497,-0.13452421, -4.8445177, 8.22124
08:36:37,232,-1.8726361,1.0346957, -3.1330667,-0.13452421, -4.8445177, 8.22124
08:36:37,233,-1.8726361,1.0346957, -3.1330667,-0.060303956, -4.8205757, 8.372074
08:36:37,234,-1.8723369,1.0348374, -3.133429,-0.060303956, -4.8205757, 8.372074
08:36:37,235,-1.8723369,1.0348374, -3.133429,-0.13691841, -4.9714103, 8.441506
08:36:37,236,-1.871969,1.0349162, -3.1338413,-0.13691841, -4.9714103, 8.441506
08:36:37,237,-1.871969,1.0349162, -3.1338413,-0.11776479, -4.8756423, 8.331373
08:36:37,238,-1.8711032,1.0341411, -3.13605,-0.11776479, -4.8756423, 8.331373
08:36:37,239,-1.8711032,1.0341411, -3.13605,-0.11776479, -4.7966332, 8.235605
08:36:37,240,-1.8709611,1.0331881, -3.1369345,-0.11776479, -4.7966332, 8.235605
08:36:37,241,-1.8709611,1.0331881, -3.1369345,-0.031573534, -4.858883, 8.261941
08:36:37,242,-1.8735789,1.0304776, -3.1354928,-0.031573534, -4.858883, 8.261941
08:36:37,243,-1.8735789,1.0304776, -3.1354928,-0.10579379, -4.9714103, 8.357709
08:36:37,244,-1.8737786,1.0300282, -3.1357813,-0.10579379, -4.9714103, 8.357709
08:36:37,245,-1.8737786,1.0300282, -3.1357813,-0.08664017, -5.0073233, 8.391228
08:36:37,246,-1.8737192,1.0288894, -3.1361153,-0.08664017, -5.0073233, 8.391228
08:36:37,247,-1.8737192,1.0288894, -3.1361153,-0.10818799, -4.7487493, 8.216452
08:36:37,248,-1.8744695,1.0271738, -3.1354635,-0.10818799, -4.7487493, 8.216452
08:36:37,249,-1.8744695,1.0271738, -3.1354635,-0.115370594, -4.80621, 8.242787
08:36:38,250,-1.8747617,1.0268452, -3.136021,-0.115370594, -4.80621, 8.242787
08:36:38,251,-1.8747617,1.0268452, -3.136021,-0.062698156, -4.909161, 8.357709
08:36:38,252,-1.876189,1.026715, -3.1365454,-0.062698156, -4.909161, 8.357709
08:36:38,253,-1.876189,1.026715, -3.1365454,-0.08424597, -4.8995843, 8.331373
08:36:38,254,-1.8767352,1.0265754, -3.1370075,-0.08424597, -4.8995843, 8.331373
08:36:38,255,-1.8767352,1.0265754, -3.1370075,-0.02439093, -4.837335, 8.240394
08:36:38,256,-1.8765982,1.0266335, -3.1371632,-0.02439093, -4.837335, 8.240394
08:36:38,257,-1.8765982,1.0266335, -3.1371632,-0.09382278, -4.885219, 8.352921
08:36:38,258,-1.8763368,1.0267941, -3.1374621,-0.09382278, -4.885219, 8.352921
08:36:38,259,-1.8763368,1.0267941, -3.1374621,-0.05312135, -4.882825, 8.276306
08:36:38,260,-1.8761665,1.0268776, -3.1376514,-0.05312135, -4.882825, 8.276306
08:36:38,261,-1.8761665,1.0268776, -3.1376514,-0.09382278, -4.837335, 8.226028
08:36:38,262,-1.875951,1.0270125, -3.13793,-0.09382278, -4.837335, 8.226028
08:36:38,263,-1.875951,1.0270125, -3.13793,-0.10339958, -4.9618335, 8.410381
08:36:38,264,-1.8757805,1.027096, -3.1381192,-0.10339958, -4.9618335, 8.410381
08:36:38,265,-1.8757805,1.027096, -3.1381192,-0.09382278, -4.882825, 8.326585
08:36:38,266,-1.8769127,1.0266563, -3.1385214,-0.09382278, -4.882825, 8.326585
08:36:38,267,-1.8769127,1.0266563, -3.1385214,-0.041150343, -4.8517003, 8.247576
08:36:38,268,-1.8769355,1.0263926, -3.13926,-0.041150343, -4.8517003, 8.247576
08:36:38,269,-1.8769355,1.0263926, -3.13926,-0.060303956, -4.834941, 8.31222
08:36:38,270,-1.8780457,1.0260974, -3.1393166,-0.060303956, -4.834941, 8.31222
08:36:38,271,-1.8780457,1.0260974, -3.1393166,-0.036361936, -4.921132, 8.245182
08:36:38,272,-1.8779546,1.0261741, -3.1394265,-0.036361936, -4.921132, 8.245182
08:36:38,273,-1.8779546,1.0261741, -3.1394265,-0.062698156, -4.873248, 8.254759
08:36:38,274,-1.8783857,1.0257993, -3.1395795,-0.062698156, -4.873248, 8.254759
08:36:38,275,-1.8783857,1.0257993, -3.1395795,-0.08664017, -4.8804307, 8.264336
08:36:38,276,-1.8781255,1.025517, -3.140126,-0.08664017, -4.8804307, 8.264336
08:36:38,277,-1.8781255,1.025517, -3.140126,-0.07227496, -4.894796, 8.300248
08:36:38,278,-1.8779771,1.0256449, -3.140312,-0.07227496, -4.894796, 8.300248
08:36:39,279,-1.8779771,1.0256449, -3.140312,-0.07466917, -4.8900075, 8.288278
08:36:39,280,-1.8778856,1.0257658, -3.1403966,-0.07466917, -4.8900075, 8.288278
08:36:39,281,-1.8778856,1.0257658, -3.1403966,-0.041150343, -4.861277, 8.269124
08:36:39,282,-1.8777277,1.0258937, -3.1405733,-0.041150343, -4.861277, 8.269124
08:36:39,283,-1.8777277,1.0258937, -3.1405733,-0.09142858, -4.94268, 8.269124
08:36:39,284,-1.8775791,1.0260216, -3.1407592,-0.09142858, -4.94268, 8.269124
08:36:39,285,-1.8775791,1.0260216, -3.1407592,-0.050727148, -4.894796, 8.336162
08:36:39,286,-1.8725431,1.0274972, 3.1383576,-0.050727148, -4.894796, 8.336162
08:36:39,287,-1.8725431,1.0274972, 3.1383576,-0.15607202, -4.8876133, 8.352921
08:36:39,288,-1.869942,1.0280952, 3.135828,-0.15607202, -4.8876133, 8.352921
08:36:39,289,-1.869942,1.0280952, 3.135828,-0.11776479, -4.8205757, 8.271518
08:36:39,290,-1.8696773,1.0282543, 3.135526,-0.11776479, -4.8205757, 8.271518
08:36:39,291,-1.8696773,1.0282543, 3.135526,-0.04833295, -4.82297, 8.187721
08:36:39,292,-1.8706715,1.0285645, 3.1346962,-0.04833295, -4.82297, 8.187721
08:36:39,293,-1.8706715,1.0285645, 3.1346962,-0.1273416, -4.858883, 8.302643
08:36:39,294,-1.8707165,1.0291673, 3.1337485,-0.1273416, -4.858883, 8.302643
08:36:39,295,-1.8707165,1.0291673, 3.1337485,-0.14649522, -4.7367783, 8.259547
08:36:39,296,-1.8713958,1.0286785, 3.133951,-0.14649522, -4.7367783, 8.259547
08:36:39,297,-1.8713958,1.0286785, 3.133951,-0.1225532, -4.8109984, 8.338555
08:36:39,298,-1.8712106,1.028831, 3.1337283,-0.1225532, -4.8109984, 8.338555
08:36:39,299,-1.8712106,1.028831, 3.1337283,-0.09861118, -4.8277583, 8.297854
08:36:39,300,-1.872778,1.0285159, 3.1354148,-0.09861118, -4.8277583, 8.297854
08:36:39,301,-1.872778,1.0285159, 3.1354148,-0.08185177, -4.8684597, 8.314613
08:36:39,302,-1.873855,1.0277133, 3.1367555,-0.08185177, -4.8684597, 8.314613
08:36:39,303,-1.873855,1.0277133, 3.1367555,-0.20635025, -4.966622, 8.470237
08:36:39,304,-1.8755693,1.0266329, 3.1391695,-0.20635025, -4.966622, 8.470237
08:36:39,305,-1.8755693,1.0266329, 3.1391695,-0.06988076, -5.1916766, 8.458265
08:36:39,306,-1.8822818,1.0206313, -3.134431,-0.06988076, -5.1916766, 8.458265
08:36:39,307,-1.8822818,1.0206313, -3.134431,0.09531915, -5.1533694, 9.107095
08:36:40,308,-1.8987939,1.0139087, -3.100944,0.09531915, -5.1533694, 9.107095
08:36:40,309,-1.8987939,1.0139087, -3.100944,4.0529346, -3.508553, 10.806977
08:36:40,310,-1.9934305,1.0269598, -2.9304314,4.0529346, -3.508553, 10.806977
08:36:40,311,-1.9934305,1.0269598, -2.9304314,4.299537, -3.6019268, 10.795007
08:36:40,312,-2.0556598,1.0228528, -2.8239405,4.299537, -3.6019268, 10.795007
08:36:40,313,-2.0556598,1.0228528, -2.8239405,6.21011, -0.92999774, 10.002525
08:36:40,314,-2.3148599,1.0706339, -2.5173137,6.21011, -0.92999774, 10.002525
08:36:40,315,-2.3148599,1.0706339, -2.5173137,6.097583, -4.174141, 5.9515367
08:36:40,316,-2.42941,1.0767109, -2.431781,6.097583, -4.174141, 5.9515367
08:36:40,317,-2.42941,1.0767109, -2.431781,2.657115, -5.4478564, 7.763947
08:36:40,318,-2.358884,1.2216517, -2.589745,2.657115, -5.4478564, 7.763947
08:36:40,319,-2.358884,1.2216517, -2.589745,-2.294094, -1.9858407, 7.404817
08:36:40,320,-2.1468563,1.2551067, -2.864784,-2.294094, -1.9858407, 7.404817
08:36:40,321,-2.1468563,1.2551067, -2.864784,-7.123199, -3.721637, 7.0648403
08:36:40,322,-1.748699,1.2542111, 2.8837218,-7.123199, -3.721637, 7.0648403
08:36:40,323,-1.748699,1.2542111, 2.8837218,-4.2477627, -2.024148, 6.463896
08:36:40,324,-1.6351911,1.1857537, 2.6836455,-4.2477627, -2.024148, 6.463896
08:36:40,325,-1.6351911,1.1857537, 2.6836455,-4.0418615, -3.1566052, 7.2803183
08:36:40,326,-1.6796741,1.1515689, 2.742673,-4.0418615, -3.1566052, 7.2803183
08:36:40,327,-1.6796741,1.1515689, 2.742673,-4.3148003, -4.092738, 7.3832693
08:36:40,328,-1.6692028,1.1569993, 2.7693157,-4.3148003, -4.092738, 7.3832693
08:36:40,329,-1.6692028,1.1569993, 2.7693157,-8.032995, -6.642563, 7.4718547
08:36:40,330,-1.6963656,1.2180874, 2.9449148,-8.032995, -6.642563, 7.4718547
08:36:40,331,-1.6963656,1.2180874, 2.9449148,-1.4992192, -0.80071086, 6.439954
08:36:40,332,-1.917582,1.1972389, -2.958932,-1.4992192, -0.80071086, 6.439954
08:36:40,333,-1.917582,1.1972389, -2.958932,1.9197009, -1.6961423, 7.5532575
08:36:40,334,-2.0652373,1.1431015, -2.7295203,1.9197009, -1.6961423, 7.5532575
08:36:40,335,-2.0652373,1.1431015, -2.7295203,5.455937, -3.1374516, 7.9075994
08:36:41,336,-2.0830002,1.1188459, -2.7029405,5.455937, -3.1374516, 7.9075994
08:36:41,337,-2.0830002,1.1188459, -2.7029405,5.929989, -2.9626749, 7.0576577
08:36:41,338,-2.0893972,1.0148696, -2.734692,5.929989, -2.9626749, 7.0576577
08:36:41,339,-2.0893972,1.0148696, -2.734692,6.755988, -2.4574983, 6.858939
08:36:41,340,-2.0987296,0.9761616, -2.7911541,6.755988, -2.4574983, 6.858939
08:36:41,341,-2.0987296,0.9761616, -2.7911541,5.49185, -4.8205757, 10.617836
08:36:41,342,-2.034588,0.96025115, -2.8788514,5.49185, -4.8205757, 10.617836
08:36:41,343,-2.034588,0.96025115, -2.8788514,3.0425816, -4.7032595, 11.225963
08:36:41,344,-2.0211022,1.0012199, -2.90691,3.0425816, -4.7032595, 11.225963
08:36:41,345,-2.0211022,1.0012199, -2.90691,0.1719336, -4.7128363, 8.362497
08:36:41,346,-2.0053737,0.99652576, -2.9514635,0.1719336, -4.7128363, 8.362497
08:36:41,347,-2.0053737,0.99652576, -2.9514635,-0.33084875, -6.829311, 8.407988
08:36:41,348,-1.970284,0.9967245, -2.9966366,-0.33084875, -6.829311, 8.407988
08:36:41,349,-1.970284,0.9967245, -2.9966366,-0.46013564, -4.020912, 8.72881
08:36:41,350,-1.9547747,0.9907844, -3.0161397,-0.46013564, -4.020912, 8.72881
08:36:41,351,-1.9547747,0.9907844, -3.0161397,0.6890812, -5.5101056, 8.041675
08:36:41,352,-1.9502952,0.9887895, -3.021083,0.6890812, -5.5101056, 8.041675
08:36:41,353,-1.9502952,0.9887895, -3.021083,0.124049574, -4.918738, 8.142231
08:36:41,354,-1.9392688,0.99127805, -3.034469,0.124049574, -4.918738, 8.142231
08:36:41,355,-1.9392688,0.99127805, -3.034469,0.38501757, -5.2730794, 8.182933
08:36:41,356,-1.9419948,0.99025124, -3.037097,0.38501757, -5.2730794, 8.182933
08:36:41,357,-1.9419948,0.99025124, -3.037097,0.4281132, -5.198859, 8.206875
08:36:41,358,-1.949773,0.98953897, -3.03421,0.4281132, -5.198859, 8.206875
08:36:41,359,-1.949773,0.98953897, -3.03421,0.3012205, -5.320964, 8.422353
08:36:41,360,-1.9538558,0.9894732, -3.0305858,0.3012205, -5.320964, 8.422353
08:36:41,361,-1.9538558,0.9894732, -3.0305858,0.39220017, -5.3185697, 8.13026
08:36:41,362,-1.9532088,0.988533, -3.0291793,0.39220017, -5.3185697, 8.13026
08:36:41,363,-1.9532088,0.988533, -3.0291793,0.39220017, -4.992958, 7.986608
08:36:41,364,-1.9458909,0.99044365, -3.0331504,0.39220017, -4.992958, 7.986608
08:36:42,365,-1.9458909,0.99044365, -3.0331504,0.22460605, -5.440674, 8.31222
08:36:42,366,-1.9467924,0.9858823, -3.032932,0.22460605, -5.440674, 8.31222
08:36:42,367,-1.9467924,0.9858823, -3.032932,0.38980597, -5.280262, 8.024915
08:36:42,368,-1.9489781,0.9846705, -3.0319548,0.38980597, -5.280262, 8.024915
08:36:42,369,-1.9489781,0.9846705, -3.0319548,0.40177697, -5.206042, 8.087165
08:36:42,370,-1.9541433,0.98254174, -3.0295844,0.40177697, -5.206042, 8.087165
08:36:42,371,-1.9541433,0.98254174, -3.0295844,0.45205522, -5.2012534, 8.079982
08:36:42,372,-1.9558262,0.9810693, -3.0299656,0.45205522, -5.2012534, 8.079982
08:36:42,373,-1.9558262,0.9810693, -3.0299656,0.4233248, -5.1892824, 8.142231
08:36:42,374,-1.9556582,0.9808128, -3.0303946,0.4233248, -5.1892824, 8.142231
08:36:42,375,-1.9556582,0.9808128, -3.0303946,0.49754503, -5.1054854, 8.022521
08:36:42,376,-1.9546062,0.97932625, -3.0311892,0.49754503, -5.1054854, 8.022521
08:36:42,377,-1.9546062,0.97932625, -3.0311892,0.4568436, -5.06239, 8.046463
08:36:42,378,-1.9532557,0.97886777, -3.032354,0.4568436, -5.06239, 8.046463
08:36:42,379,-1.9532557,0.97886777, -3.032354,0.51909286, -5.244349, 8.127866
08:36:42,380,-1.9528532,0.9790321, -3.0328844,0.51909286, -5.244349, 8.127866
08:36:42,381,-1.9528532,0.9790321, -3.0328844,0.38501757, -5.158158, 8.044068
08:36:42,382,-1.9526502,0.97838104, -3.0335968,0.38501757, -5.158158, 8.044068
08:36:42,383,-1.9526502,0.97838104, -3.0335968,0.48557404, -5.158158, 8.020126
08:36:42,384,-1.952727,0.9778666, -3.0342467,0.48557404, -5.158158, 8.020126
08:36:42,385,-1.952727,0.9778666, -3.0342467,0.49275663, -5.2730794, 8.103924
08:36:42,386,-1.954146,0.9779542, -3.034985,0.49275663, -5.2730794, 8.103924
08:36:42,387,-1.954146,0.9779542, -3.034985,0.51191026, -5.186888, 8.05604
08:36:42,388,-1.9558827,0.978058, -3.0353417,0.51191026, -5.186888, 8.05604
08:36:42,389,-1.9558827,0.978058, -3.0353417,0.49275663, -5.3018103, 8.199692
08:36:42,390,-1.955108,0.97793776, -3.036646,0.49275663, -5.3018103, 8.199692
08:36:42,391,-1.955108,0.97793776, -3.036646,0.473603, -5.332935, 8.257153
08:36:42,392,-1.9550691,0.9780362, -3.0366786,0.473603, -5.332935, 8.257153
08:36:43,393,-1.9550691,0.9780362, -3.0366786,0.4209306, -5.246743, 8.020126
08:36:43,394,-1.9548104,0.9781949, -3.0369759,0.4209306, -5.246743, 8.020126
08:36:43,395,-1.9548104,0.9781949, -3.0369759,0.49993923, -5.160552, 8.046463
08:36:43,396,-1.9544717,0.9778879, -3.0381055,0.49993923, -5.160552, 8.046463
08:36:43,397,-1.9544717,0.9778879, -3.0381055,0.4352958, -5.320964, 8.115895
08:36:43,398,-1.9538933,0.9776132, -3.0394242,0.4352958, -5.320964, 8.115895
08:36:43,399,-1.9538933,0.9776132, -3.0394242,0.40895957, -5.258714, 8.060828
08:36:43,400,-1.9538398,0.97773904, -3.039497,0.40895957, -5.258714, 8.060828
08:36:43,401,-1.9538398,0.97773904, -3.039497,0.49036244, -5.1916766, 8.036886
08:36:43,402,-1.9536222,0.977503, -3.0401547,0.49036244, -5.1916766, 8.036886
08:36:43,403,-1.9536222,0.977503, -3.0401547,0.44487262, -5.229984, 8.060828
08:36:43,404,-1.9541162,0.97744316, -3.040165,0.44487262, -5.229984, 8.060828
08:36:43,405,-1.9541162,0.97744316, -3.040165,0.50951606, -5.241955, 8.065617
08:36:43,406,-1.9544376,0.97797406, -3.040437,0.50951606, -5.241955, 8.065617
08:36:43,407,-1.9544376,0.97797406, -3.040437,0.45444942, -5.1437926, 8.096742
08:36:43,408,-1.9547502,0.9775581, -3.040782,0.45444942, -5.1437926, 8.096742
08:36:43,409,-1.9547502,0.9775581, -3.040782,0.43769, -5.246743, 8.142231
08:36:43,410,-1.9548272,0.9772185, -3.0412855,0.43769, -5.246743, 8.142231
08:36:43,411,-1.9548272,0.9772185, -3.0412855,0.48078564, -5.2036476, 8.0728
08:36:43,412,-1.954702,0.9773551, -3.04143,0.48078564, -5.2036476, 8.0728
08:36:43,413,-1.954702,0.9773551, -3.04143,0.4640262, -5.359271, 8.063223
08:36:43,414,-1.9548688,0.977136, -3.0417738,0.4640262, -5.359271, 8.063223
08:36:43,415,-1.9548688,0.977136, -3.0417738,0.4664204, -5.3018103, 8.135049
08:36:43,416,-1.9548293,0.97723436, -3.041807,0.4664204, -5.3018103, 8.135049
08:36:43,417,-1.9548293,0.97723436, -3.041807,0.473603, -5.218013, 8.01055
08:36:43,418,-1.9547374,0.9772611, -3.0423775,0.473603, -5.218013, 8.01055
08:36:43,419,-1.9547374,0.9772611, -3.0423775,0.47839144, -5.3185697, 8.05604
08:36:43,420,-1.9547573,0.97688323, -3.0426257,0.47839144, -5.3185697, 8.05604
08:36:43,421,-1.9547573,0.97688323, -3.0426257,0.4329016, -5.222801, 8.036886
08:36:44,422,-1.9545147,0.97654194, -3.0440238,0.4329016, -5.222801, 8.036886
08:36:44,423,-1.9545147,0.97654194, -3.0440238,0.49275663, -5.2275896, 8.036886
08:36:44,424,-1.9544878,0.97664034, -3.0440698,0.49275663, -5.2275896, 8.036886
08:36:44,425,-1.9544878,0.97664034, -3.0440698,0.4424784, -5.2611084, 8.120684
08:36:44,426,-1.9546417,0.9768041, -3.0445478,0.4424784, -5.2611084, 8.120684
08:36:44,427,-1.9546417,0.9768041, -3.0445478,0.48317984, -5.2635026, 8.075193
08:36:44,428,-1.9551462,0.9768421, -3.0452497,0.48317984, -5.2635026, 8.075193
08:36:44,429,-1.9551462,0.9768421, -3.0452497,0.425719, -5.208436, 8.044068
08:36:44,430,-1.9555337,0.97711086, -3.045194,0.425719, -5.208436, 8.044068
08:36:44,431,-1.9555337,0.97711086, -3.045194,0.49515083, -5.229984, 8.144626
08:36:44,432,-1.9554877,0.9769133, -3.0456102,0.49515083, -5.229984, 8.144626
08:36:44,433,-1.9554877,0.9769133, -3.0456102,0.44487262, -5.229984, 8.053645
08:36:44,434,-1.9559908,0.9765146, -3.0454457,0.44487262, -5.229984, 8.053645
08:36:44,435,-1.9559908,0.9765146, -3.0454457,0.44966102, -5.2515316, 8.046463
08:36:44,436,-1.9560682,0.9764865, -3.046077,0.44966102, -5.2515316, 8.046463
08:36:44,437,-1.9560682,0.9764865, -3.046077,0.4664204, -5.2156186, 8.065617
08:36:44,438,-1.9560059,0.9761416, -3.046063,0.4664204, -5.2156186, 8.065617
08:36:44,439,-1.9560059,0.9761416, -3.046063,0.4712088, -5.3185697, 8.032098
08:36:44,440,-1.9559344,0.9762234, -3.0461535,0.4712088, -5.3185697, 8.032098
08:36:44,441,-1.9559344,0.9762234, -3.0461535,0.425719, -5.294627, 8.079982
08:36:44,442,-1.9554079,0.97615635, -3.0465908,0.425719, -5.294627, 8.079982
08:36:44,443,-1.9554079,0.97615635, -3.0465908,0.4281132, -5.268291, 8.08477
08:36:44,444,-1.9544694,0.97632265, -3.0475674,0.4281132, -5.268291, 8.08477
08:36:44,445,-1.9544694,0.97632265, -3.0475674,0.4305074, -5.2730794, 8.123077
08:36:44,446,-1.9545261,0.976229, -3.0479257,0.4305074, -5.2730794, 8.123077
08:36:44,447,-1.9545261,0.976229, -3.0479257,0.49036244, -5.2874446, 8.048857
08:36:44,448,-1.9544319,0.97638196, -3.0480134,0.49036244, -5.2874446, 8.048857
08:36:44,449,-1.9544319,0.97638196, -3.0480134,0.44487262, -5.282656, 8.099135
08:36:45,450,-1.9544045,0.97655153, -3.048079,0.44487262, -5.282656, 8.099135
08:36:45,451,-1.9544045,0.97655153, -3.048079,0.461632, -5.277868, 7.9937906
08:36:45,452,-1.9543372,0.9766772, -3.0481396,0.461632, -5.277868, 7.9937906
08:36:45,453,-1.9543372,0.9766772, -3.0481396,0.45205522, -5.253926, 8.015338
08:36:45,454,-1.9541839,0.9769118, -3.048331,0.45205522, -5.253926, 8.015338
08:36:45,455,-1.9541839,0.9769118, -3.048331,0.39459437, -5.2371664, 8.0823765
08:36:45,456,-1.9540945,0.97702074, -3.0484586,0.39459437, -5.2371664, 8.0823765
08:36:45,457,-1.9540945,0.97702074, -3.0484586,0.34192193, -5.2994156, 8.036886
08:36:45,458,-1.9538792,0.97712386, -3.048693,0.34192193, -5.2994156, 8.036886
08:36:45,459,-1.9538792,0.97712386, -3.048693,0.4233248, -5.265897, 8.022521
08:36:45,460,-1.9552988,0.9764436, -3.0481486,0.4233248, -5.265897, 8.022521
08:36:45,461,-1.9552988,0.9764436, -3.0481486,0.37544075, -5.2491374, 8.022521
08:36:45,462,-1.9560574,0.9769494, -3.0475936,0.37544075, -5.2491374, 8.022521
08:36:45,463,-1.9560574,0.9769494, -3.0475936,0.38262334, -5.241955, 8.135049
08:36:45,464,-1.956008,0.9770478, -3.0476174,0.38262334, -5.241955, 8.135049
08:36:45,465,-1.956008,0.9770478, -3.0476174,0.425719, -5.234772, 8.089559
08:36:45,466,-1.9551194,0.97697943, -3.048302,0.425719, -5.234772, 8.089559
08:36:45,467,-1.9551194,0.97697943, -3.048302,0.4568436, -5.268291, 8.135049
08:36:45,468,-1.9550649,0.9771761, -3.0483944,0.4568436, -5.268291, 8.135049
08:36:45,469,-1.9550649,0.9771761, -3.0483944,0.44966102, -5.282656, 8.063223
08:36:45,470,-1.9551872,0.97747123, -3.0487378,0.44966102, -5.282656, 8.063223
08:36:45,471,-1.9551872,0.97747123, -3.0487378,0.44726682, -5.268291, 8.053645
08:36:45,472,-1.9551107,0.9775091, -3.048859,0.44726682, -5.268291, 8.053645
08:36:45,473,-1.9551107,0.9775091, -3.048859,0.40177697, -5.174917, 8.058434
08:36:45,474,-1.9549443,0.97774374, -3.049038,0.40177697, -5.174917, 8.058434
08:36:45,475,-1.9549443,0.97774374, -3.049038,0.37304655, -5.234772, 8.115895
08:36:45,476,-1.9501514,0.9802939, -3.0540316,0.37304655, -5.234772, 8.115895
08:36:45,477,-1.9501514,0.9802939, -3.0540316,0.3203741, -5.2970214, 8.178144
08:36:45,478,-1.9477527,0.98357165, -3.0527344,0.3203741, -5.2970214, 8.178144
08:36:46,479,-1.9477527,0.98357165, -3.0527344,0.042646717, -6.0559835, 9.478195
08:36:46,480,-1.9536381,0.9599249, -3.033259,0.042646717, -6.0559835, 9.478195
08:36:46,481,-1.9536381,0.9599249, -3.033259,3.4567783, -7.9928927, 7.6346602
08:36:46,482,-2.0237234,0.886552, -2.9063473,3.4567783, -7.9928927, 7.6346602
08:36:46,483,-2.0237234,0.886552, -2.9063473,6.0113916, -7.482928, 9.3082075
08:36:46,484,-2.058115,0.89872795, -2.7092547,6.0113916, -7.482928, 9.3082075
08:36:46,485,-2.058115,0.89872795, -2.7092547,6.732046, -5.8524766, 9.114277
08:36:46,486,-2.0907307,0.9407161, -2.4564898,6.732046, -5.8524766, 9.114277
08:36:46,487,-2.0907307,0.9407161, -2.4564898,9.020903, -2.5652375, 8.127866
08:36:46,488,-2.097128,0.95846635, -2.3501205,9.020903, -2.5652375, 8.127866
08:36:46,489,-2.097128,0.95846635, -2.3501205,6.7272577, -3.6186862, 4.553323
08:36:46,490,-2.0911357,1.0408238, -2.2606502,6.7272577, -3.6186862, 4.553323
08:36:46,491,-2.0911357,1.0408238, -2.2606502,-1.9205986, -4.5835495, 5.092018
08:36:46,492,-1.9570582,1.278764, -2.4628873,-1.9205986, -4.5835495, 5.092018
08:36:46,493,-1.9570582,1.278764, -2.4628873,-9.560496, -1.171812, 8.925135
08:36:46,494,-1.1215123,1.384244, 2.8701355,-9.560496, -1.171812, 8.925135
08:36:46,495,-1.1215123,1.384244, 2.8701355,-7.6427407, -0.7360674, 6.109554
08:36:46,496,-1.0215043,1.3235614, 2.7115362,-7.6427407, -0.7360674, 6.109554
08:36:46,497,-1.0215043,1.3235614, 2.7115362,-3.8886325, -0.25722703, 7.3186255
08:36:46,498,-0.8884391,1.2814206, 2.5343134,-3.8886325, -0.25722703, 7.3186255
08:36:46,499,-0.8884391,1.2814206, 2.5343134,-5.382614, -0.30032268, 7.8597155
08:36:46,500,-0.80037874,1.2905993, 2.4875503,-5.382614, -0.30032268, 7.8597155
08:36:46,501,-0.80037874,1.2905993, 2.4875503,-6.5078893, -1.396867, 6.4615016
08:36:46,502,-0.75714225,1.3492833, 2.5320225,-6.5078893, -1.396867, 6.4615016
08:36:46,503,-0.75714225,1.3492833, 2.5320225,-4.1711483, -0.7528268, 7.311443
08:36:46,504,-0.9843493,1.3497357, 2.782109,-4.1711483, -0.7528268, 7.311443
08:36:46,505,-0.9843493,1.3497357, 2.782109,-0.2709937, -2.4814403, 9.289054
08:36:46,506,-1.3126458,1.3176521, 3.1063757,-0.2709937, -2.4814403, 9.289054
08:36:46,507,-1.3126458,1.3176521, 3.1063757,4.0625114, -4.7511435, 8.228422
08:36:47,508,-1.5605774,1.1930397, -3.0106225,4.0625114, -4.7511435, 8.228422
08:36:47,509,-1.5605774,1.1930397, -3.0106225,4.613178, -3.6833296, 8.247576
08:36:47,510,-1.6030307,1.1185008, -3.0398583,4.613178, -3.6833296, 8.247576
08:36:47,511,-1.6030307,1.1185008, -3.0398583,4.589236, -6.168511, 8.685715
08:36:47,512,-1.7370912,1.0115995, -3.0445516,4.589236, -6.168511, 8.685715
08:36:47,513,-1.7370912,1.0115995, -3.0445516,4.1822214, -5.0719666, 6.858939
08:36:47,514,-1.8720418,0.9456279, -3.0190635,4.1822214, -5.0719666, 6.858939
08:36:47,515,-1.8720418,0.9456279, -3.0190635,1.9316719, -8.912266, 10.9961195
08:36:47,516,-1.9316643,0.9198903, -3.0425904,1.9316719, -8.912266, 10.9961195
08:36:47,517,-1.9316643,0.9198903, -3.0425904,2.71697, -7.241113, 9.921123
08:36:47,518,-1.9636819,0.9514011, -3.0406399,2.71697, -7.241113, 9.921123
08:36:47,519,-1.9636819,0.9514011, -3.0406399,0.19108722, -5.656152, 9.710433
08:36:47,520,-1.9704918,0.9440708, -3.0461524,0.19108722, -5.656152, 9.710433
08:36:47,521,-1.9704918,0.9440708, -3.0461524,-0.120159, -5.229984, 7.1845503
08:36:47,522,-1.9552693,0.954996, -3.064708,-0.120159, -5.229984, 7.1845503
08:36:47,523,-1.9552693,0.954996, -3.064708,0.45444942, -5.409549, 8.264336
08:36:47,524,-1.9337101,0.9621546, -3.0757608,0.45444942, -5.409549, 8.264336
08:36:47,525,-1.9337101,0.9621546, -3.0757608,0.39938277, -5.4263086, 7.9913964
08:36:47,526,-1.9277643,0.9616954, -3.0825713,0.39938277, -5.4263086, 7.9913964
08:36:47,527,-1.9277643,0.9616954, -3.0825713,0.27009588, -5.5220766, 8.022521
08:36:47,528,-1.9295056,0.96241844, -3.0830164,0.27009588, -5.5220766, 8.022521
08:36:47,529,-1.9295056,0.96241844, -3.0830164,0.24375966, -5.320964, 8.321796
08:36:47,530,-1.9322237,0.965928, -3.0849826,0.24375966, -5.320964, 8.321796
08:36:47,531,-1.9322237,0.965928, -3.0849826,0.19108722, -5.1821, 8.022521
08:36:47,532,-1.9284008,0.9708412, -3.0877926,0.19108722, -5.1821, 8.022521
08:36:47,533,-1.9284008,0.9708412, -3.0877926,0.21742344, -5.253926, 8.305037
08:36:47,534,-1.9238034,0.9757972, -3.090049,0.21742344, -5.253926, 8.305037
08:36:47,535,-1.9238034,0.9757972, -3.090049,0.2629133, -5.2994156, 8.05604
08:36:48,536,-1.9205071,0.9789457, -3.0933197,0.2629133, -5.2994156, 8.05604
08:36:48,537,-1.9205071,0.9789457, -3.0933197,0.24615386, -5.134216, 8.125472
08:36:48,538,-1.924269,0.9819125, -3.091087,0.24615386, -5.134216, 8.125472
08:36:48,539,-1.924269,0.9819125, -3.091087,0.2940379, -5.124639, 8.182933
08:36:48,540,-1.9303604,0.9850519, -3.0855792,0.2940379, -5.124639, 8.182933
08:36:48,541,-1.9303604,0.9850519, -3.0855792,0.2605191, -5.1821, 8.209269
08:36:48,542,-1.9325889,0.98668736, -3.0827532,0.2605191, -5.1821, 8.209269
08:36:48,543,-1.9325889,0.98668736, -3.0827532,0.23657705, -5.146187, 8.077588
08:36:48,544,-1.9328903,0.9879401, -3.08032,0.23657705, -5.146187, 8.077588
08:36:48,545,-1.9328903,0.9879401, -3.08032,0.38022915, -5.2371664, 8.089559
08:36:48,546,-1.9337335,0.987972, -3.0784507,0.38022915, -5.2371664, 8.089559
08:36:48,547,-1.9337335,0.987972, -3.0784507,0.2964321, -5.0695724, 8.091953
08:36:48,548,-1.9338558,0.9875126, -3.078597,0.2964321, -5.0695724, 8.091953
08:36:48,549,-1.9338558,0.9875126, -3.078597,0.3107973, -5.25632, 8.20448
08:36:48,550,-1.933884,0.98767143, -3.0785875,0.3107973, -5.25632, 8.20448
08:36:48,551,-1.933884,0.98767143, -3.0785875,0.32755673, -5.241955, 8.106318
08:36:48,552,-1.9339204,0.9872387, -3.0787053,0.32755673, -5.241955, 8.106318
08:36:48,553,-1.9339204,0.9872387, -3.0787053,0.3060089, -5.162946, 8.099135
08:36:48,554,-1.9350697,0.9878153, -3.0784402,0.3060089, -5.162946, 8.099135
08:36:48,555,-1.9350697,0.9878153, -3.0784402,0.32516253, -5.1437926, 8.125472
08:36:48,556,-1.9407486,0.98755616, -3.0756235,0.32516253, -5.1437926, 8.125472
08:36:48,557,-1.9407486,0.98755616, -3.0756235,0.3060089, -5.162946, 8.13026
08:36:48,558,-1.9444734,0.98765016, -3.0735106,0.3060089, -5.162946, 8.13026
08:36:48,559,-1.9444734,0.98765016, -3.0735106,0.33234513, -5.1557636, 8.19251
08:36:48,560,-1.9511918,0.98708975, -3.0696497,0.33234513, -5.1557636, 8.19251
08:36:48,561,-1.9511918,0.98708975, -3.0696497,0.37065235, -5.21083, 8.170961
08:36:48,562,-1.9525405,0.986975, -3.0690086,0.37065235, -5.21083, 8.170961
08:36:48,563,-1.9525405,0.986975, -3.0690086,0.32276833, -5.1892824, 8.118289
08:36:48,564,-1.9524263,0.987154, -3.0691414,0.32276833, -5.1892824, 8.118289
08:36:49,565,-1.9524263,0.987154, -3.0691414,0.28685528, -5.2012534, 8.144626
08:36:49,566,-1.9522783,0.9872453, -3.0693083,0.28685528, -5.2012534, 8.144626
08:36:49,567,-1.9522783,0.9872453, -3.0693083,0.4424784, -5.232378, 8.048857
08:36:49,568,-1.9597046,0.9880228, -3.0657218,0.4424784, -5.232378, 8.048857
08:36:49,569,-1.9597046,0.9880228, -3.0657218,0.18869302, -5.028871, 8.0823765
08:36:49,570,-1.9661508,0.9888091, -3.0656698,0.18869302, -5.028871, 8.0823765
08:36:49,571,-1.9661508,0.9888091, -3.0656698,0.4329016, -5.2132244, 8.118289
08:36:49,572,-1.9749985,0.9875921, -3.0619726,0.4329016, -5.2132244, 8.118289
08:36:49,573,-1.9749985,0.9875921, -3.0619726,0.54782325, -5.0911202, 8.180538
08:36:49,574,-1.9763981,0.9873696, -3.0613136,0.54782325, -5.0911202, 8.180538
08:36:49,575,-1.9763981,0.9873696, -3.0613136,0.32516253, -5.1198506, 8.158991
08:36:49,576,-1.9744334,0.98862946, -3.062257,0.32516253, -5.1198506, 8.158991
08:36:49,577,-1.9744334,0.98862946, -3.062257,0.37304655, -5.150975, 8.149414
08:36:49,578,-1.9696453,0.9898195, -3.064865,0.37304655, -5.150975, 8.149414
08:36:49,579,-1.9696453,0.9898195, -3.064865,0.32755673, -5.127033, 8.158991
08:36:49,580,-1.9691074,0.98984385, -3.0656254,0.32755673, -5.127033, 8.158991
08:36:49,581,-1.9691074,0.98984385, -3.0656254,0.32995093, -5.1892824, 8.144626
08:36:49,582,-1.9696374,0.9899376, -3.0658472,0.32995093, -5.1892824, 8.144626
08:36:49,583,-1.9696374,0.9899376, -3.0658472,0.3131915, -5.0815434, 8.127866
08:36:49,584,-1.9703689,0.9901352, -3.0661082,0.3131915, -5.0815434, 8.127866
08:36:49,585,-1.9703689,0.9901352, -3.0661082,0.33473933, -5.1174564, 8.252364
08:36:49,586,-1.9702433,0.99038595, -3.066245,0.33473933, -5.1174564, 8.252364
08:36:49,587,-1.9702433,0.99038595, -3.066245,0.34431612, -5.206042, 8.202086
08:36:49,588,-1.9701407,0.9905656, -3.0663848,0.34431612, -5.206042, 8.202086
08:36:49,589,-1.9701407,0.9905656, -3.0663848,0.32755673, -5.0791492, 8.127866
08:36:49,590,-1.9701449,0.99068034, -3.0663736,0.32755673, -5.0791492, 8.127866
08:36:49,591,-1.9701449,0.99068034, -3.0663736,0.3203741, -5.150975, 8.120684
08:36:49,592,-1.9703995,0.990614, -3.0669925,0.3203741, -5.150975, 8.120684
08:36:50,593,-1.9703995,0.990614, -3.0669925,0.35389295, -5.1916766, 8.147019
08:36:50,594,-1.9709872,0.99035275, -3.0671709,0.35389295, -5.1916766, 8.147019
08:36:50,595,-1.9709872,0.99035275, -3.0671709,0.38501757, -5.112668, 8.194903
08:36:50,596,-1.9709164,0.99061996, -3.0672717,0.38501757, -5.112668, 8.194903
08:36:50,597,-1.9709164,0.99061996, -3.0672717,0.28446108, -5.088726, 8.163779
08:36:50,598,-1.9709233,0.99066836, -3.0676277,0.28446108, -5.088726, 8.163779
08:36:50,599,-1.9709233,0.99066836, -3.0676277,0.38262334, -5.1318216, 8.168568
08:36:50,600,-1.9719127,0.99060017, -3.0673525,0.38262334, -5.1318216, 8.168568
08:36:50,601,-1.9719127,0.99060017, -3.0673525,0.35628715, -5.1198506, 8.211663
08:36:50,602,-1.973682,0.9906761, -3.0666533,0.35628715, -5.1198506, 8.211663
08:36:50,603,-1.973682,0.9906761, -3.0666533,0.35868135, -5.122245, 8.178144
08:36:50,604,-1.9735847,0.9908997, -3.066762,0.35868135, -5.122245, 8.178144
08:36:50,605,-1.9735847,0.9908997, -3.066762,0.3131915, -5.148581, 8.163779
08:36:50,606,-1.9735106,0.9909813, -3.0668545,0.3131915, -5.148581, 8.163779
08:36:50,607,-1.9735106,0.9909813, -3.0668545,0.34671032, -5.1653404, 8.170961
08:36:50,608,-1.973118,0.9910345, -3.0671952,0.34671032, -5.1653404, 8.170961
08:36:50,609,-1.973118,0.9910345, -3.0671952,0.32755673, -5.148581, 8.132654
08:36:50,610,-1.9730923,0.9910664, -3.0676098,0.32755673, -5.148581, 8.132654
08:36:50,611,-1.9730923,0.9910664, -3.0676098,0.33234513, -5.139004, 8.180538
08:36:50,612,-1.9729668,0.9913171, -3.0677464,0.33234513, -5.139004, 8.180538
08:36:50,613,-1.9729668,0.9913171, -3.0677464,0.2916437, -5.0959086, 8.20448
08:36:50,614,-1.972847,0.9913821, -3.0678847,0.2916437, -5.0959086, 8.20448
08:36:50,615,-1.972847,0.9913821, -3.0678847,0.37544075, -5.110274, 8.08477
08:36:50,616,-1.97228,0.99147135, -3.0688775,0.37544075, -5.110274, 8.08477
08:36:50,617,-1.97228,0.99147135, -3.0688775,0.3012205, -5.0576015, 8.132654
08:36:50,618,-1.971836,0.991174, -3.069451,0.3012205, -5.0576015, 8.132654
08:36:50,619,-1.971836,0.991174, -3.069451,0.33952773, -5.088726, 8.046463
08:36:50,620,-1.9717106,0.9913537, -3.0695689,0.33952773, -5.088726, 8.046463
08:36:50,621,-1.9717106,0.9913537, -3.0695689,0.33952773, -5.160552, 8.166173
08:36:51,622,-1.9716353,0.9915062, -3.0696814,0.33952773, -5.160552, 8.166173
08:36:51,623,-1.9716353,0.9915062, -3.0696814,0.28446108, -5.196465, 8.132654
08:36:51,624,-1.9714773,0.9916691, -3.0698578,0.28446108, -5.196465, 8.132654
08:36:51,625,-1.9714773,0.9916691, -3.0698578,0.27249008, -5.0935144, 8.161385
08:36:51,626,-1.9701225,0.99208766, -3.0711203,0.27249008, -5.0935144, 8.161385
08:36:51,627,-1.9701225,0.99208766, -3.0711203,0.28685528, -5.112668, 8.137443
08:36:51,628,-1.9698331,0.9922987, -3.071517,0.28685528, -5.112668, 8.137443
08:36:51,629,-1.9698331,0.9922987, -3.071517,0.27249008, -5.110274, 8.190115
08:36:51,630,-1.9695568,0.9922842, -3.0723412,0.27249008, -5.110274, 8.190115
08:36:51,631,-1.9695568,0.99228